onset	duration	trial_type	image_type	Press	ReactionTime	ReactionTime_Interpolated	CorrectOmission	CorrectCommission	CommissionError	OmissionError	response_type	nonsmoothVarianceTimeCourse	VarianceTimeCourse	In_the_Zone	ThoughtProbe	ThoughtProbe_Interpolated
0.679470	1.332761	city	9	1	1.723968	1.723968	0	1	0	0	CorrectCommission	1.516860	1.516860	0	0	84
2.005625	1.319549	city	5	1	1.377612	1.377612	0	1	0	0	CorrectCommission	0.352723	1.455947	0	0	84
3.325177	1.319555	city	2	1	0.941258	0.941258	0	1	0	0	CorrectCommission	1.113904	1.396510	0	0	84
4.644819	1.319729	mountain	10	1	0.671260	0.671260	0	0	1	0	CommissionError	2.021396	1.339730	0	0	84
5.964476	1.319585	city	4	1	1.110618	1.110618	0	1	0	0	CorrectCommission	0.544670	1.286382	0	0	84
7.270631	1.292725	city	2	1	1.697981	1.697981	0	1	0	0	CorrectCommission	1.429515	1.236756	0	0	84
8.570144	1.306300	city	8	1	1.098030	1.098030	0	1	0	0	CorrectCommission	0.586980	1.190591	0	0	84
9.883070	1.319554	city	2	1	1.067058	1.067058	0	1	0	0	CorrectCommission	0.691079	1.147271	0	0	84
11.202661	1.319626	city	1	1	0.783683	0.783683	0	1	0	0	CorrectCommission	1.643528	1.105978	0	0	84
12.515587	1.306227	city	7	1	0.715904	0.715904	0	1	0	0	CorrectCommission	1.871341	1.065918	0	0	84
13.828510	1.319620	city	1	1	1.684432	1.684432	0	1	0	0	CorrectCommission	1.383976	1.026508	0	0	84
15.148114	1.319588	city	5	1	1.322913	1.322913	0	1	0	0	CorrectCommission	0.168873	0.987522	0	0	84
16.474358	1.332898	city	8	1	0.992191	0.992191	0	1	0	0	CorrectCommission	0.942713	0.949163	0	0	84
17.807175	1.332738	city	10	1	1.725495	1.725495	0	1	0	0	CorrectCommission	1.521991	0.911909	0	0	84
19.113403	1.279718	mountain	4	0	0.000000	1.641343	1	0	0	0	CorrectOmission	1.239149	0.876432	0	0	84
20.393066	1.279609	city	5	1	1.283436	1.283436	0	1	0	0	CorrectCommission	0.036190	0.843437	0	0	84
21.672575	1.279405	city	1	1	1.195475	1.195475	0	1	0	0	CorrectCommission	0.259458	0.813476	0	0	84
22.958805	1.293056	city	4	1	1.201436	1.201436	0	1	0	0	CorrectCommission	0.239420	0.786848	1	0	84
24.245121	1.279577	city	3	1	0.910960	0.910960	0	1	0	0	CorrectCommission	1.215740	0.763578	1	0	84
25.531361	1.292900	city	4	1	1.200622	1.200622	0	1	0	0	CorrectCommission	0.242157	0.743504	1	0	84
26.830933	1.306244	city	2	1	0.889674	0.889674	0	1	0	0	CorrectCommission	1.287283	0.726418	1	0	84
28.130508	1.292909	city	5	1	0.870231	0.870231	0	1	0	0	CorrectCommission	1.352634	0.712108	1	0	84
29.430082	1.306237	city	1	1	1.009377	1.009377	0	1	0	0	CorrectCommission	0.884950	0.700515	1	0	84
30.722960	1.279521	city	2	1	1.144404	1.144404	0	1	0	0	CorrectCommission	0.431111	0.691739	1	0	84
32.015881	1.306319	city	1	1	1.087455	1.087455	0	1	0	0	CorrectCommission	0.622523	0.685923	1	0	84
33.308781	1.279483	city	8	1	1.235781	1.235781	0	1	0	0	CorrectCommission	0.123985	0.683081	1	0	84
34.601677	1.306312	city	2	1	1.113767	1.113767	0	1	0	0	CorrectCommission	0.534086	0.682997	1	0	84
35.894543	1.279413	city	4	1	1.182935	1.182935	0	1	0	0	CorrectCommission	0.301603	0.685053	1	0	84
37.180702	1.292908	city	6	1	0.946726	0.946726	0	1	0	0	CorrectCommission	1.095525	0.688242	1	0	84
38.466976	1.279639	city	9	1	1.298336	1.298336	0	1	0	0	CorrectCommission	0.086269	0.691233	1	0	84
39.746555	1.279518	city	4	1	1.136582	1.136582	0	1	0	0	CorrectCommission	0.457403	0.692619	1	0	84
41.032845	1.293065	city	10	1	0.817702	0.817702	0	1	0	0	CorrectCommission	1.529189	0.691131	1	0	84
42.319168	1.279583	city	6	1	1.025252	1.025252	0	1	0	0	CorrectCommission	0.831593	0.685965	1	0	84
42.958961	12.822338	break	0	0	0.000000	1.594209	0	0	0	0	ThoughtProbe	1.080727	0.677053	1	84	84
56.427738	1.292881	city	5	1	1.857076	1.857076	0	1	0	0	CorrectCommission	1.964248	0.665075	1	0	8.377500e+01
57.727325	1.306292	city	2	1	1.146355	1.146355	0	1	0	0	CorrectCommission	0.424553	0.651443	1	0	8.355000e+01
59.047005	1.333068	city	3	1	1.240261	1.240261	0	1	0	0	CorrectCommission	0.108928	0.638129	1	0	8.332500e+01
60.353287	1.279498	mountain	9	0	0.000000	1.277917	1	0	0	0	CorrectOmission	0.017638	0.627291	1	0	8.310000e+01
61.632755	1.279438	city	10	1	1.315093	1.315093	0	1	0	0	CorrectCommission	0.142592	0.620911	1	0	8.287500e+01
62.918995	1.293039	city	6	1	1.407561	1.407561	0	1	0	0	CorrectCommission	0.453386	0.620455	1	0	8.265000e+01
64.205299	1.279574	mountain	6	0	0.000000	1.343956	1	0	0	0	CorrectOmission	0.239603	0.626647	1	0	8.242500e+01
65.491463	1.292752	city	10	1	1.208216	1.208216	0	1	0	0	CorrectCommission	0.216634	0.639446	1	0	8.220000e+01
66.790955	1.306235	city	6	1	1.084278	1.084278	0	1	0	0	CorrectCommission	0.633202	0.658084	1	0	8.197500e+01
68.083946	1.279747	city	1	1	0.862292	0.862292	0	1	0	0	CorrectCommission	1.379317	0.681245	1	0	8.175000e+01
69.363609	1.279577	city	6	1	0.870818	0.870818	0	1	0	0	CorrectCommission	1.350661	0.707341	1	0	8.152500e+01
70.649773	1.292749	city	4	1	1.143119	1.143119	0	1	0	0	CorrectCommission	0.435429	0.734780	1	0	8.130000e+01
71.942680	1.293066	city	10	1	1.028173	1.028173	0	1	0	0	CorrectCommission	0.821774	0.762172	1	0	8.107500e+01
73.229004	1.279582	city	6	1	1.398431	1.398431	0	1	0	0	CorrectCommission	0.422697	0.788443	1	0	8.085000e+01
74.508591	1.279597	city	2	1	1.088727	1.088727	0	1	0	0	CorrectCommission	0.618246	0.812928	0	0	8.062500e+01
75.808167	1.319548	city	1	1	0.933060	0.933060	0	1	0	0	CorrectCommission	1.141459	0.835397	0	0	8.040000e+01
77.107651	1.279414	city	9	1	1.072210	1.072210	0	1	0	0	CorrectCommission	0.673761	0.855988	0	0	8.017500e+01
78.393906	1.293096	city	6	1	0.866332	0.866332	0	1	0	0	CorrectCommission	1.365737	0.875183	0	0	7.995000e+01
79.680229	1.279552	city	3	1	0.915692	0.915692	0	1	0	0	CorrectCommission	1.199836	0.893656	0	0	7.972500e+01
80.959793	1.279583	city	5	1	1.378286	1.378286	0	1	0	0	CorrectCommission	0.354990	0.912157	0	0	7.950000e+01
82.266045	1.332917	mountain	3	0	0.000000	1.628361	1	0	0	0	CorrectOmission	1.195517	0.931368	0	0	7.927500e+01
83.572212	1.279418	city	9	1	1.547813	1.547813	0	1	0	0	CorrectCommission	0.924785	0.951699	0	0	7.905000e+01
84.851776	1.279714	city	7	1	1.018536	1.018536	0	1	0	0	CorrectCommission	0.854166	0.973160	0	0	7.882500e+01
86.131424	1.279579	city	3	1	1.609574	1.609574	0	1	0	0	CorrectCommission	1.132371	0.995262	0	0	7.860000e+01
87.424347	1.306262	city	8	1	1.373268	1.373268	0	1	0	0	CorrectCommission	0.338125	1.016956	0	0	7.837500e+01
88.717255	1.279553	city	2	1	1.198597	1.198597	0	1	0	0	CorrectCommission	0.248963	1.036711	0	0	7.815000e+01
90.003487	1.292908	city	8	1	0.932419	0.932419	0	1	0	0	CorrectCommission	1.143613	1.052641	0	0	7.792500e+01
91.303062	1.306243	city	4	1	0.660057	0.660057	0	1	0	0	CorrectCommission	2.059049	1.062734	0	0	7.770000e+01
92.622551	1.332740	city	8	1	1.711328	1.711328	0	1	0	0	CorrectCommission	1.474375	1.065157	0	0	7.747500e+01
93.928787	1.279729	city	1	1	1.739851	1.739851	0	1	0	0	CorrectCommission	1.570245	1.058549	0	0	7.725000e+01
95.221764	1.306232	city	3	1	0.777743	0.777743	0	1	0	0	CorrectCommission	1.663494	1.042150	0	0	7.702500e+01
96.514679	1.279592	city	6	1	0.866285	0.866285	0	1	0	0	CorrectCommission	1.365896	1.015911	0	0	7.680000e+01
97.794212	1.279474	city	1	1	1.034376	1.034376	0	1	0	0	CorrectCommission	0.800927	0.980477	0	0	7.657500e+01
99.073692	1.279486	city	4	1	1.292236	1.292236	0	1	0	0	CorrectCommission	0.065768	0.937102	0	0	7.635000e+01
100.353317	1.279760	city	5	1	1.089283	1.089283	0	1	0	0	CorrectCommission	0.616379	0.887466	0	0	7.612500e+01
101.652946	1.319503	city	2	1	0.931141	0.931141	0	1	0	0	CorrectCommission	1.147910	0.833510	0	0	7.590000e+01
102.959198	1.293003	city	7	1	0.982077	0.982077	0	1	0	0	CorrectCommission	0.976706	0.777333	1	0	7.567500e+01
104.258736	1.306072	city	9	1	0.909836	0.909836	0	1	0	0	CorrectCommission	1.219518	0.721097	1	0	7.545000e+01
105.551636	1.279717	city	5	1	0.914356	0.914356	0	1	0	0	CorrectCommission	1.204325	0.666956	1	0	7.522500e+01
106.191490	12.062546	break	0	1	1.253541	1.253541	0	0	0	0	ThoughtProbe	0.064290	0.616972	1	75	75
118.900581	1.293083	city	6	1	1.251963	1.251963	0	1	0	0	CorrectCommission	0.069596	0.573046	1	0	7.505882e+01
120.186844	1.279450	city	10	1	1.295268	1.295268	0	1	0	0	CorrectCommission	0.075956	0.536797	1	0	7.511765e+01
121.473030	1.292916	city	8	1	1.331345	1.331345	0	1	0	0	CorrectCommission	0.197216	0.509440	1	0	7.517647e+01
122.765991	1.293009	city	9	1	1.465613	1.465613	0	1	0	0	CorrectCommission	0.648505	0.491691	1	0	7.523529e+01
124.052284	1.279581	city	6	1	1.132472	1.132472	0	1	0	0	CorrectCommission	0.471214	0.483697	1	0	7.529412e+01
125.338539	1.292929	city	5	1	1.208327	1.208327	0	1	0	0	CorrectCommission	0.216259	0.484993	1	0	7.535294e+01
126.624794	1.279571	mountain	8	0	0.000000	1.346892	1	0	0	0	CorrectOmission	0.249471	0.494512	1	0	7.541176e+01
127.904358	1.279565	city	5	1	1.349511	1.349511	0	1	0	0	CorrectCommission	0.258274	0.510640	1	0	7.547059e+01
129.183853	1.279430	city	10	1	1.017529	1.017529	0	1	0	0	CorrectCommission	0.857551	0.531315	1	0	7.552941e+01
130.470093	1.293057	city	7	1	1.368652	1.368652	0	1	0	0	CorrectCommission	0.322609	0.554166	1	0	7.558824e+01
131.763016	1.292774	city	1	1	1.137523	1.137523	0	1	0	0	CorrectCommission	0.454238	0.576774	1	0	7.564706e+01
133.049179	1.279551	city	8	1	1.154317	1.154317	0	1	0	0	CorrectCommission	0.397792	0.596845	1	0	7.570588e+01
134.342163	1.306409	city	3	1	0.925110	0.925110	0	1	0	0	CorrectCommission	1.168179	0.612478	1	0	7.576471e+01
135.635147	1.279582	city	6	1	0.969767	0.969767	0	1	0	0	CorrectCommission	1.018084	0.622347	1	0	7.582353e+01
136.928055	1.306230	city	9	1	0.988389	0.988389	0	1	0	0	CorrectCommission	0.955493	0.625897	1	0	7.588235e+01
138.227631	1.292903	city	8	1	0.996729	0.996729	0	1	0	0	CorrectCommission	0.927462	0.623371	1	0	7.594118e+01
139.520538	1.292930	city	5	1	1.052203	1.052203	0	1	0	0	CorrectCommission	0.741009	0.615733	1	0	76
140.813461	1.292900	city	8	1	1.075977	1.075977	0	1	0	0	CorrectCommission	0.661099	0.604523	1	0	7.605882e+01
142.112930	1.306056	city	1	1	1.096238	1.096238	0	1	0	0	CorrectCommission	0.593002	0.591616	1	0	7.611765e+01
143.405746	1.279575	city	6	1	1.229326	1.229326	0	1	0	0	CorrectCommission	0.145680	0.578946	1	0	7.617647e+01
144.685333	1.279586	city	5	1	1.301384	1.301384	0	1	0	0	CorrectCommission	0.096513	0.568258	1	0	7.623529e+01
145.965012	1.279768	city	2	1	1.408133	1.408133	0	1	0	0	CorrectCommission	0.455309	0.560911	1	0	7.629412e+01
147.244690	1.279591	city	8	1	1.233843	1.233843	0	1	0	0	CorrectCommission	0.130499	0.557719	1	0	7.635294e+01
148.524261	1.279548	city	3	1	1.022896	1.022896	0	1	0	0	CorrectCommission	0.839511	0.559000	1	0	7.641176e+01
149.810486	1.292922	mountain	7	1	1.047860	1.047860	0	0	1	0	CommissionError	0.755605	0.564592	1	0	7.647059e+01
151.096680	1.279437	city	8	1	1.390606	1.390606	0	1	0	0	CorrectCommission	0.396397	0.574037	1	0	7.652941e+01
152.376160	1.279544	city	7	1	1.071090	1.071090	0	1	0	0	CorrectCommission	0.677528	0.586753	1	0	7.658824e+01
153.655807	1.279736	city	5	1	1.026494	1.026494	0	1	0	0	CorrectCommission	0.827419	0.602121	1	0	7.664706e+01
154.935455	1.279570	city	10	1	1.081579	1.081579	0	1	0	0	CorrectCommission	0.642271	0.619612	1	0	7.670588e+01
156.215012	1.279547	city	4	1	1.505074	1.505074	0	1	0	0	CorrectCommission	0.781135	0.638809	1	0	7.676471e+01
157.507843	1.306112	city	8	1	1.281157	1.281157	0	1	0	0	CorrectCommission	0.028530	0.659364	1	0	7.682353e+01
158.800766	1.279744	city	7	1	1.393702	1.393702	0	1	0	0	CorrectCommission	0.406803	0.680988	1	0	7.688235e+01
160.087021	1.292769	city	8	1	1.423989	1.423989	0	1	0	0	CorrectCommission	0.508602	0.703325	1	0	7.694118e+01
160.733414	8.103993	break	0	0	0.000000	1.666865	0	0	0	0	ThoughtProbe	1.324931	0.725916	1	77	77
169.483932	1.293056	city	8	1	1.688432	1.688432	0	1	0	0	CorrectCommission	1.397420	0.748094	1	0	7.767647e+01
170.776917	1.292911	city	10	1	1.054793	1.054793	0	1	0	0	CorrectCommission	0.732303	0.769010	1	0	7.835294e+01
172.069748	1.292751	city	9	1	1.408566	1.408566	0	1	0	0	CorrectCommission	0.456762	0.787605	1	0	7.902941e+01
173.356018	1.279778	city	2	1	1.292343	1.292343	0	1	0	0	CorrectCommission	0.066127	0.802653	1	0	7.970588e+01
174.655655	1.319513	city	9	1	1.175454	1.175454	0	1	0	0	CorrectCommission	0.326749	0.812874	0	0	8.038235e+01
175.961792	1.292750	city	6	1	0.889442	0.889442	0	1	0	0	CorrectCommission	1.288063	0.817091	0	0	8.105882e+01
177.267960	1.319587	mountain	3	1	0.633855	0.633855	0	0	1	0	CommissionError	2.147115	0.814387	0	0	8.173529e+01
178.567612	1.279717	city	2	1	1.509946	1.509946	0	1	0	0	CorrectCommission	0.797512	0.804333	1	0	8.241176e+01
179.847198	1.279454	city	7	1	1.715849	1.715849	0	1	0	0	CorrectCommission	1.489572	0.787166	1	0	8.308824e+01
181.126694	1.279542	city	4	1	1.401019	1.401019	0	1	0	0	CorrectCommission	0.431396	0.763762	1	0	8.376471e+01
182.406342	1.279762	city	8	1	1.361450	1.361450	0	1	0	0	CorrectCommission	0.298401	0.735718	1	0	8.444118e+01
183.692673	1.292885	city	9	1	1.629625	1.629625	0	1	0	0	CorrectCommission	1.199764	0.705113	1	0	8.511765e+01
184.985535	1.292839	city	4	1	1.415612	1.415612	0	1	0	0	CorrectCommission	0.480445	0.674333	1	0	8.579412e+01
186.278366	1.292822	city	10	1	1.057701	1.057701	0	1	0	0	CorrectCommission	0.722528	0.645842	1	0	8.647059e+01
187.571228	1.292906	city	8	1	1.200864	1.200864	0	1	0	0	CorrectCommission	0.241345	0.621854	1	0	8.714706e+01
188.857559	1.279755	city	4	1	1.196430	1.196430	0	1	0	0	CorrectCommission	0.256248	0.604112	1	0	8.782353e+01
190.137131	1.279400	city	2	1	1.180285	1.180285	0	1	0	0	CorrectCommission	0.310510	0.593734	1	0	8.850000e+01
191.416641	1.279620	city	1	1	1.419789	1.419789	0	1	0	0	CorrectCommission	0.494484	0.591108	1	0	8.917647e+01
192.716293	1.319689	city	3	1	1.076865	1.076865	0	1	0	0	CorrectCommission	0.658116	0.595929	1	0	8.985294e+01
194.035934	1.319575	city	6	1	1.221957	1.221957	0	1	0	0	CorrectCommission	0.170447	0.607292	1	0	9.052941e+01
195.335510	1.279572	city	8	1	1.039328	1.039328	0	1	0	0	CorrectCommission	0.784282	0.623884	1	0	9.120588e+01
196.621750	1.292922	city	7	1	1.351600	1.351600	0	1	0	0	CorrectCommission	0.265296	0.644133	1	0	9.188235e+01
197.914581	1.292727	city	10	1	1.469269	1.469269	0	1	0	0	CorrectCommission	0.660793	0.666496	1	0	9.255882e+01
199.200821	1.279763	mountain	1	1	1.514698	1.514698	0	0	1	0	CommissionError	0.813484	0.689635	1	0	9.323529e+01
200.493820	1.306229	city	7	1	1.854056	1.854056	0	1	0	0	CorrectCommission	1.954098	0.712538	1	0	9.391176e+01
201.786636	1.279410	city	8	1	1.497898	1.497898	0	1	0	0	CorrectCommission	0.757018	0.734528	1	0	9.458824e+01
203.066223	1.279768	city	5	1	1.507583	1.507583	0	1	0	0	CorrectCommission	0.789569	0.755279	1	0	9.526471e+01
204.345901	1.279573	city	6	1	1.371383	1.371383	0	1	0	0	CorrectCommission	0.331788	0.774578	1	0	9.594118e+01
205.638809	1.306242	city	4	1	1.262649	1.262649	0	1	0	0	CorrectCommission	0.033679	0.792213	1	0	9.661765e+01
206.945038	1.306222	city	5	1	1.065086	1.065086	0	1	0	0	CorrectCommission	0.697705	0.807902	0	0	9.729412e+01
208.244598	1.292892	city	6	1	1.244213	1.244213	0	1	0	0	CorrectCommission	0.095644	0.821150	0	0	9.797059e+01
209.537415	1.292764	city	2	1	0.824062	0.824062	0	1	0	0	CorrectCommission	1.507813	0.831401	0	0	9.864706e+01
210.823578	1.279559	city	10	1	0.710106	0.710106	0	1	0	0	CorrectCommission	1.890828	0.838062	0	0	9.932353e+01
211.463364	9.263790	break	0	1	0.707146	0.707146	0	0	0	0	ThoughtProbe	1.900777	0.840720	0	100	100
221.366943	1.279575	city	6	1	1.194391	1.194391	0	1	0	0	CorrectCommission	0.263101	0.839303	0	0	9.985000e+01
222.653137	1.292832	city	9	1	1.089475	1.089475	0	1	0	0	CorrectCommission	0.615734	0.834163	0	0	9.970000e+01
223.952652	1.306201	city	6	1	1.249372	1.249372	0	1	0	0	CorrectCommission	0.078302	0.826093	0	0	9.955000e+01
225.252274	1.293032	city	10	1	1.154119	1.154119	0	1	0	0	CorrectCommission	0.398458	0.816284	0	0	9.940000e+01
226.538498	1.279402	city	1	1	1.702802	1.702802	0	1	0	0	CorrectCommission	1.445719	0.806233	0	0	9.925000e+01
227.838074	1.319750	city	8	1	1.856291	1.856291	0	1	0	0	CorrectCommission	1.961610	0.797604	1	0	9.910000e+01
229.164291	1.332711	city	4	1	1.507839	1.507839	0	1	0	0	CorrectCommission	0.790428	0.792094	1	0	9.895000e+01
230.470459	1.279601	mountain	1	0	0.000000	1.276404	1	0	0	0	CorrectOmission	0.012554	0.791265	1	0	9.880000e+01
231.750046	1.279571	mountain	7	0	0.000000	1.165237	1	0	0	0	CorrectOmission	0.361091	0.796315	1	0	9.865000e+01
233.029602	1.279564	city	1	1	1.177586	1.177586	0	1	0	0	CorrectCommission	0.319583	0.807955	0	0	9.850000e+01
234.309296	1.279798	city	9	1	1.316703	1.316703	0	1	0	0	CorrectCommission	0.148002	0.826356	0	0	9.835000e+01
235.622284	1.346194	city	1	1	0.878075	0.878075	0	1	0	0	CorrectCommission	1.326268	0.851157	0	0	9.820000e+01
236.948410	1.306058	city	6	1	1.065243	1.065243	0	1	0	0	CorrectCommission	0.697179	0.881497	0	0	9.805000e+01
238.241318	1.279753	city	4	1	1.460267	1.460267	0	1	0	0	CorrectCommission	0.630536	0.916266	0	0	9.790000e+01
239.527557	1.292723	city	2	1	1.904959	1.904959	0	1	0	0	CorrectCommission	2.125189	0.954186	0	0	9.775000e+01
240.820389	1.292929	city	5	1	1.577886	1.577886	0	1	0	0	CorrectCommission	1.025863	0.993957	0	0	9.760000e+01
242.119965	1.306231	city	9	1	1.643168	1.643168	0	1	0	0	CorrectCommission	1.245284	1.034394	0	0	9.745000e+01
243.412949	1.279727	city	8	1	1.185945	1.185945	0	1	0	0	CorrectCommission	0.291488	1.074376	0	0	9.730000e+01
244.692551	1.279483	city	9	1	1.479194	1.479194	0	1	0	0	CorrectCommission	0.694150	1.112869	0	0	9.715000e+01
245.992126	1.319684	mountain	4	0	0.000000	1.709351	1	0	0	0	CorrectOmission	1.467731	1.148835	0	0	97
247.291748	1.279554	city	3	1	1.515800	1.515800	0	1	0	0	CorrectCommission	0.817188	1.181229	0	0	9.685000e+01
248.571335	1.279630	city	4	1	0.537925	0.537925	0	1	0	0	CorrectCommission	2.469544	1.209043	0	0	9.670000e+01
249.857590	1.292860	city	3	1	1.475301	1.475301	0	1	0	0	CorrectCommission	0.681065	1.231311	0	0	9.655000e+01
251.157074	1.306126	city	5	1	1.036009	1.036009	0	1	0	0	CorrectCommission	0.795436	1.247275	0	0	9.640000e+01
252.456650	1.293018	city	7	1	1.705118	1.705118	0	1	0	0	CorrectCommission	1.453504	1.256407	0	0	9.625000e+01
253.756287	1.306259	city	6	1	2.034184	2.034184	0	1	0	0	CorrectCommission	2.559527	1.258500	0	0	9.610000e+01
255.062561	1.306280	city	10	0	0.000000	1.855833	0	0	0	1	OmissionError	1.960070	1.253680	0	0	9.595000e+01
256.362061	1.292729	city	3	1	1.523548	1.523548	0	1	0	0	CorrectCommission	0.843229	1.242411	0	0	9.580000e+01
257.648285	1.279693	city	6	1	1.390814	1.390814	0	1	0	0	CorrectCommission	0.397098	1.225441	0	0	9.565000e+01
258.941162	1.306093	city	8	1	0.999845	0.999845	0	1	0	0	CorrectCommission	0.916988	1.203617	0	0	9.550000e+01
260.240753	1.293073	city	6	1	0.875710	0.875710	0	1	0	0	CorrectCommission	1.334219	1.177777	0	0	9.535000e+01
261.527069	1.279580	city	2	1	0.867585	0.867585	0	1	0	0	CorrectCommission	1.361528	1.148729	0	0	9.520000e+01
262.813232	1.292738	city	8	1	0.838987	0.838987	0	1	0	0	CorrectCommission	1.457648	1.117165	0	0	9.505000e+01
264.112762	1.306288	city	2	1	1.587343	1.587343	0	1	0	0	CorrectCommission	1.057651	1.083663	0	0	9.490000e+01
265.412323	1.292881	city	1	1	1.700587	1.700587	0	1	0	0	CorrectCommission	1.438275	1.048747	0	0	9.475000e+01
266.711884	1.306194	city	4	1	1.525105	1.525105	0	1	0	0	CorrectCommission	0.848461	1.012898	0	0	9.460000e+01
268.004761	1.279597	city	7	1	1.614495	1.614495	0	1	0	0	CorrectCommission	1.148909	0.976608	0	0	9.445000e+01
269.291046	1.292949	city	10	1	1.256481	1.256481	0	1	0	0	CorrectCommission	0.054408	0.940414	0	0	9.430000e+01
270.590698	1.306347	city	3	1	1.476124	1.476124	0	1	0	0	CorrectCommission	0.683831	0.904953	0	0	9.415000e+01
271.243866	9.409999	break	0	0	0.000000	1.622844	0	0	0	0	ThoughtProbe	1.176974	0.870917	0	94	94
281.300354	1.292981	mountain	2	0	0.000000	1.678575	1	0	0	0	CorrectOmission	1.364288	0.839104	0	0	94
282.586700	1.279744	mountain	3	0	0.000000	1.625245	1	0	0	0	CorrectOmission	1.185043	0.810370	0	0	94
283.866364	1.279577	city	9	1	1.444787	1.444787	0	1	0	0	CorrectCommission	0.578506	0.785597	1	0	94
285.159210	1.306077	city	1	1	1.119132	1.119132	0	1	0	0	CorrectCommission	0.516053	0.765570	1	0	94
286.452118	1.279743	city	2	1	1.411668	1.411668	0	1	0	0	CorrectCommission	0.467190	0.750908	1	0	94
287.731812	1.279640	city	6	1	1.321182	1.321182	0	1	0	0	CorrectCommission	0.163058	0.741934	1	0	94
289.038025	1.332829	city	8	1	1.284026	1.284026	0	1	0	0	CorrectCommission	0.038171	0.738597	1	0	94
290.350922	1.292913	city	3	1	1.734123	1.734123	0	1	0	0	CorrectCommission	1.550992	0.740477	1	0	94
291.637177	1.279602	city	9	1	1.407315	1.407315	0	1	0	0	CorrectCommission	0.452560	0.746842	1	0	94
292.929993	1.306046	city	2	1	1.329336	1.329336	0	1	0	0	CorrectCommission	0.190463	0.756819	1	0	94
294.236145	1.306266	city	1	1	1.909222	1.909222	0	1	0	0	CorrectCommission	2.139518	0.769457	1	0	94
295.542480	1.306395	city	2	1	1.489739	1.489739	0	1	0	0	CorrectCommission	0.729594	0.783824	1	0	94
296.835388	1.279402	city	3	1	1.498140	1.498140	0	1	0	0	CorrectCommission	0.757831	0.799176	1	0	94
298.141602	1.333048	city	9	1	1.135761	1.135761	0	1	0	0	CorrectCommission	0.460162	0.814906	0	0	94
299.454590	1.292931	city	5	1	1.190367	1.190367	0	1	0	0	CorrectCommission	0.276625	0.830566	0	0	94
300.747437	1.292755	city	9	1	1.027372	1.027372	0	1	0	0	CorrectCommission	0.824467	0.845842	0	0	94
302.046936	1.306255	city	6	1	0.999217	0.999217	0	1	0	0	CorrectCommission	0.919099	0.860517	0	0	94
303.346588	1.293020	city	9	1	0.761014	0.761014	0	1	0	0	CorrectCommission	1.719721	0.874491	0	0	94
304.632874	1.279601	city	10	1	1.124994	1.124994	0	1	0	0	CorrectCommission	0.496351	0.887751	0	0	94
305.919159	1.292939	city	7	1	0.865409	0.865409	0	1	0	0	CorrectCommission	1.368840	0.900454	0	0	94
307.205383	1.279533	mountain	6	0	0.000000	0.999125	1	0	0	0	CorrectOmission	0.919409	0.912851	0	0	94
308.484955	1.279596	city	2	1	1.293816	1.293816	0	1	0	0	CorrectCommission	0.071079	0.925306	0	0	94
309.764526	1.279573	city	7	0	0.000000	1.517160	0	0	0	1	OmissionError	0.821759	0.938270	0	0	94
311.044037	1.279405	city	10	1	1.678138	1.678138	0	1	0	0	CorrectCommission	1.362822	0.952215	0	0	94
312.323517	1.279572	city	2	1	1.785733	1.785733	0	1	0	0	CorrectCommission	1.724457	0.967589	0	0	94
313.603119	1.279627	city	9	1	1.351722	1.351722	0	1	0	0	CorrectCommission	0.265706	0.984729	0	0	94
314.882782	1.279691	city	7	1	1.463220	1.463220	0	1	0	0	CorrectCommission	0.640460	1.003804	0	0	94
316.169098	1.292965	city	8	1	1.805461	1.805461	0	1	0	0	CorrectCommission	1.790765	1.024652	0	0	94
317.455353	1.279552	city	2	0	0.000000	1.512951	0	0	0	1	OmissionError	0.807611	1.046725	0	0	94
318.754822	1.319391	city	8	1	1.221430	1.221430	0	1	0	0	CorrectCommission	0.172221	1.069068	0	0	94
320.054352	1.279662	city	9	1	1.566636	1.566636	0	1	0	0	CorrectCommission	0.988053	1.090344	0	0	94
321.340698	1.293013	city	4	1	1.671479	1.671479	0	1	0	0	CorrectCommission	1.340440	1.108835	0	0	94
322.626892	1.279394	city	10	1	1.731042	1.731042	0	1	0	0	CorrectCommission	1.540637	1.122645	0	0	94
323.919800	1.306383	mountain	4	1	0.790759	0.790759	0	0	1	0	CommissionError	1.619748	1.129916	0	0	94
325.219360	1.292771	city	3	1	1.629570	1.629570	0	1	0	0	CorrectCommission	1.199578	1.129051	0	0	94
326.512268	1.293049	city	10	0	0.000000	1.719955	0	0	0	1	OmissionError	1.503373	1.118929	0	0	94
327.798615	1.279603	city	4	1	1.551347	1.551347	0	1	0	0	CorrectCommission	0.936665	1.099093	0	0	94
329.078186	1.279555	city	6	1	1.613176	1.613176	0	1	0	0	CorrectCommission	1.144478	1.069838	0	0	94
330.357758	1.279595	city	10	1	1.531996	1.531996	0	1	0	0	CorrectCommission	0.871622	1.032252	0	0	94
331.657318	1.319541	city	6	1	0.585816	0.585816	0	1	0	0	CorrectCommission	2.308579	0.988143	0	0	94
332.976837	1.319493	city	8	1	1.015502	1.015502	0	1	0	0	CorrectCommission	0.864363	0.939887	0	0	94
334.289673	1.306151	city	1	1	1.373293	1.373293	0	1	0	0	CorrectCommission	0.338207	0.890241	0	0	94
335.582611	1.279766	city	7	1	1.601463	1.601463	0	1	0	0	CorrectCommission	1.105109	0.841997	0	0	94
336.888855	1.332729	city	10	1	1.071488	1.071488	0	1	0	0	CorrectCommission	0.676190	0.797678	1	0	94
338.195038	1.279592	city	6	1	1.181433	1.181433	0	1	0	0	CorrectCommission	0.306652	0.759281	1	0	94
338.834839	9.850225	break	0	0	0.000000	1.248451	0	0	0	0	ThoughtProbe	0.081399	0.728001	1	94	94
349.324799	1.279509	city	1	1	1.287545	1.287545	0	1	0	0	CorrectCommission	0.050001	0.704164	1	0	9.395652e+01
350.604309	1.279513	city	9	1	1.313720	1.313720	0	1	0	0	CorrectCommission	0.137978	0.687307	1	0	9.391304e+01
351.883942	1.279734	city	4	1	1.020661	1.020661	0	1	0	0	CorrectCommission	0.847024	0.676306	1	0	9.386957e+01
353.163574	1.279562	mountain	9	1	0.553750	0.553750	0	0	1	0	CommissionError	2.416357	0.669622	1	0	9.382609e+01
354.443085	1.279445	city	5	1	1.360133	1.360133	0	1	0	0	CorrectCommission	0.293973	0.665626	1	0	9.378261e+01
355.722595	1.279560	city	1	1	1.020333	1.020333	0	1	0	0	CorrectCommission	0.848125	0.662944	1	0	9.373913e+01
357.002197	1.279623	city	6	1	1.228499	1.228499	0	1	0	0	CorrectCommission	0.148460	0.660494	1	0	9.369565e+01
358.281799	1.279614	mountain	3	0	0.000000	1.410627	1	0	0	0	CorrectOmission	0.463689	0.657698	1	0	9.365217e+01
359.568115	1.292994	city	9	1	1.330297	1.330297	0	1	0	0	CorrectCommission	0.193693	0.654444	1	0	9.360870e+01
360.854401	1.279597	city	5	1	0.751089	0.751089	0	1	0	0	CorrectCommission	1.753082	0.651048	1	0	9.356522e+01
362.133881	1.279382	city	10	1	1.423752	1.423752	0	1	0	0	CorrectCommission	0.507805	0.648103	1	0	9.352174e+01
363.413391	1.279615	city	8	1	1.553291	1.553291	0	1	0	0	CorrectCommission	0.943196	0.646368	1	0	9.347826e+01
364.699677	1.292941	mountain	9	0	0.000000	1.336306	1	0	0	0	CorrectOmission	0.213889	0.646557	1	0	9.343478e+01
365.985992	1.279692	city	7	1	1.124263	1.124263	0	1	0	0	CorrectCommission	0.498806	0.649205	1	0	9.339130e+01
367.265564	1.279437	city	4	0	0.000000	1.268630	0	0	0	1	OmissionError	0.013576	0.654560	1	0	9.334783e+01
368.551788	1.293020	city	6	1	1.379825	1.379825	0	1	0	0	CorrectCommission	0.360163	0.662522	1	0	9.330435e+01
369.838013	1.279447	city	1	1	1.068270	1.068270	0	1	0	0	CorrectCommission	0.687006	0.672710	1	0	9.326087e+01
371.117615	1.279772	city	6	1	1.868268	1.868268	0	1	0	0	CorrectCommission	2.001865	0.684519	1	0	9.321739e+01
372.397278	1.279533	city	1	1	1.235422	1.235422	0	1	0	0	CorrectCommission	0.125192	0.697245	1	0	9.317391e+01
373.676758	1.279445	city	2	1	1.349460	1.349460	0	1	0	0	CorrectCommission	0.258102	0.710318	1	0	9.313043e+01
374.956268	1.279563	city	9	1	1.689560	1.689560	0	1	0	0	CorrectCommission	1.401210	0.723355	1	0	9.308696e+01
376.235840	1.279600	city	1	1	1.446845	1.446845	0	1	0	0	CorrectCommission	0.585422	0.736263	1	0	9.304348e+01
377.515442	1.279568	city	3	1	1.136345	1.136345	0	1	0	0	CorrectCommission	0.458197	0.749315	1	0	93
378.795013	1.279582	city	7	1	1.582742	1.582742	0	1	0	0	CorrectCommission	1.042184	0.763083	1	0	9.295652e+01
380.074585	1.279546	city	5	1	1.654986	1.654986	0	1	0	0	CorrectCommission	1.285005	0.778346	1	0	9.291304e+01
381.354187	1.279658	city	1	1	1.394077	1.394077	0	1	0	0	CorrectCommission	0.408066	0.795922	1	0	9.286957e+01
382.633850	1.279669	city	6	1	1.400182	1.400182	0	1	0	0	CorrectCommission	0.428584	0.816564	0	0	9.282609e+01
383.913391	1.279439	city	9	1	1.122872	1.122872	0	1	0	0	CorrectCommission	0.503484	0.840702	0	0	9.278261e+01
385.192963	1.279714	mountain	1	1	1.076057	1.076057	0	0	1	0	CommissionError	0.660831	0.868302	0	0	9.273913e+01
386.472565	1.279486	city	9	1	0.840843	0.840843	0	1	0	0	CorrectCommission	1.451409	0.898765	0	0	9.269565e+01
387.752075	1.279512	city	7	1	1.070956	1.070956	0	1	0	0	CorrectCommission	0.677978	0.930846	0	0	9.265217e+01
389.038361	1.293069	city	2	1	0.924013	0.924013	0	1	0	0	CorrectCommission	1.171868	0.962726	0	0	9.260870e+01
390.324677	1.279585	city	1	1	1.398115	1.398115	0	1	0	0	CorrectCommission	0.421635	0.992130	0	0	9.256522e+01
391.604279	1.279599	city	3	1	1.018360	1.018360	0	1	0	0	CorrectCommission	0.854759	1.016562	0	0	9.252174e+01
392.883789	1.279406	city	8	1	1.017504	1.017504	0	1	0	0	CorrectCommission	0.857635	1.033578	0	0	9.247826e+01
394.163361	1.279733	city	2	1	0.591305	0.591305	0	1	0	0	CorrectCommission	2.290129	1.041113	0	0	9.243478e+01
395.443024	1.279599	city	3	1	1.660054	1.660054	0	1	0	0	CorrectCommission	1.302039	1.037751	0	0	9.239130e+01
396.722534	1.279464	city	2	1	1.768312	1.768312	0	1	0	0	CorrectCommission	1.665903	1.023009	0	0	9.234783e+01
398.002045	1.279508	city	8	1	1.604085	1.604085	0	1	0	0	CorrectCommission	1.113921	0.997368	0	0	9.230435e+01
399.281586	1.279577	city	3	1	1.710806	1.710806	0	1	0	0	CorrectCommission	1.472621	0.962255	0	0	9.226087e+01
400.561157	1.279607	city	1	1	1.609006	1.609006	0	1	0	0	CorrectCommission	1.130461	0.919877	0	0	9.221739e+01
401.840759	1.279563	city	6	1	1.355479	1.355479	0	1	0	0	CorrectCommission	0.278333	0.872908	0	0	9.217391e+01
403.120331	1.279595	city	10	1	1.180543	1.180543	0	1	0	0	CorrectCommission	0.309644	0.824126	0	0	9.213043e+01
404.399902	1.279551	city	6	1	1.515918	1.515918	0	1	0	0	CorrectCommission	0.817582	0.776125	1	0	9.208696e+01
405.679535	1.279738	city	5	1	1.497264	1.497264	0	1	0	0	CorrectCommission	0.754887	0.731059	1	0	9.204348e+01
406.319427	12.102688	break	0	0	0.000000	1.290092	0	0	0	0	ThoughtProbe	0.058560	0.690576	1	92	92
419.061890	1.279599	city	2	1	1.124453	1.124453	0	1	0	0	CorrectCommission	0.498169	0.655817	1	0	9.147500e+01
420.341492	1.279580	city	9	1	1.230401	1.230401	0	1	0	0	CorrectCommission	0.142067	0.627574	1	0	9.095000e+01
421.621063	1.279557	city	4	1	1.748759	1.748759	0	1	0	0	CorrectCommission	1.600186	0.606488	1	0	9.042500e+01
422.907288	1.292909	mountain	6	0	0.000000	1.452365	1	0	0	0	CorrectOmission	0.603975	0.593170	1	0	8.990000e+01
424.193542	1.279599	city	8	1	1.018524	1.018524	0	1	0	0	CorrectCommission	0.854205	0.588395	1	0	8.937500e+01
425.473053	1.279396	city	7	1	1.124546	1.124546	0	1	0	0	CorrectCommission	0.497855	0.593005	1	0	8.885000e+01
426.752533	1.279584	city	9	0	0.000000	1.275489	0	0	0	1	OmissionError	0.009477	0.607775	1	0	8.832500e+01
428.032196	1.279740	mountain	6	0	0.000000	1.391152	1	0	0	0	CorrectOmission	0.398232	0.633151	1	0	8.780000e+01
429.311890	1.279628	city	9	1	1.391336	1.391336	0	1	0	0	CorrectCommission	0.398851	0.668919	1	0	8.727500e+01
430.591431	1.279487	city	4	1	1.195841	1.195841	0	1	0	0	CorrectCommission	0.258227	0.713975	1	0	8.675000e+01
431.871002	1.279642	city	1	1	1.228348	1.228348	0	1	0	0	CorrectCommission	0.148966	0.766175	1	0	8.622500e+01
433.163849	1.306059	city	2	1	1.332578	1.332578	0	1	0	0	CorrectCommission	0.201361	0.822360	0	0	8.570000e+01
434.476746	1.319742	city	1	1	1.071556	1.071556	0	1	0	0	CorrectCommission	0.675960	0.878615	0	0	8.517500e+01
435.789673	1.306085	city	6	1	0.660624	0.660624	0	1	0	0	CorrectCommission	2.057143	0.930655	0	0	8.465000e+01
437.095856	1.306288	city	5	1	0.783052	0.783052	0	1	0	0	CorrectCommission	1.645649	0.974367	0	0	8.412500e+01
438.402161	1.306322	city	10	1	0.940243	0.940243	0	1	0	0	CorrectCommission	1.117316	1.006388	0	0	8.360000e+01
439.708374	1.306098	city	4	1	0.727270	0.727270	0	1	0	0	CorrectCommission	1.833138	1.024533	0	0	8.307500e+01
441.014618	1.306381	city	1	1	0.887417	0.887417	0	1	0	0	CorrectCommission	1.294869	1.028047	0	0	8.255000e+01
442.320923	1.306249	mountain	7	1	0.623387	0.623387	0	0	1	0	CommissionError	2.182299	1.017740	0	0	8.202500e+01
443.633759	1.319392	city	6	1	1.484277	1.484277	0	1	0	0	CorrectCommission	0.711237	0.995763	0	0	8.150000e+01
444.953308	1.319717	city	8	1	0.958494	0.958494	0	1	0	0	CorrectCommission	1.055974	0.965304	0	0	8.097500e+01
446.266205	1.306079	city	2	1	1.453323	1.453323	0	1	0	0	CorrectCommission	0.607195	0.930075	0	0	8.045000e+01
447.599030	1.359557	city	10	1	1.267038	1.267038	0	1	0	0	CorrectCommission	0.018925	0.893824	0	0	7.992500e+01
448.925323	1.293063	city	4	1	1.311571	1.311571	0	1	0	0	CorrectCommission	0.130752	0.859873	0	0	7.940000e+01
450.218323	1.292906	city	1	1	1.744415	1.744415	0	1	0	0	CorrectCommission	1.585582	0.830746	0	0	7.887500e+01
451.531219	1.332918	city	6	1	1.403561	1.403561	0	1	0	0	CorrectCommission	0.439941	0.808018	0	0	7.835000e+01
452.837463	1.279556	city	4	1	1.564492	1.564492	0	1	0	0	CorrectCommission	0.980845	0.792322	1	0	7.782500e+01
454.150299	1.346146	city	6	1	1.301883	1.301883	0	1	0	0	CorrectCommission	0.098192	0.783400	1	0	7.730000e+01
455.483215	1.319654	city	1	1	0.979383	0.979383	0	1	0	0	CorrectCommission	0.985762	0.780354	1	0	7.677500e+01
456.816162	1.346224	city	3	1	1.063119	1.063119	0	1	0	0	CorrectCommission	0.704316	0.781795	1	0	7.625000e+01
458.142365	1.306227	city	5	1	0.878573	0.878573	0	1	0	0	CorrectCommission	1.324595	0.786157	1	0	7.572500e+01
459.448639	1.306293	city	9	1	1.036001	1.036001	0	1	0	0	CorrectCommission	0.795465	0.791862	1	0	7.520000e+01
460.761536	1.319535	city	10	1	1.217427	1.217427	0	1	0	0	CorrectCommission	0.185673	0.797530	1	0	7.467500e+01
462.061005	1.279398	city	3	1	1.426870	1.426870	0	1	0	0	CorrectCommission	0.518285	0.802062	1	0	7.415000e+01
463.367249	1.333050	city	1	1	1.725611	1.725611	0	1	0	0	CorrectCommission	1.522381	0.804717	1	0	7.362500e+01
464.673584	1.279611	city	7	1	1.712477	1.712477	0	1	0	0	CorrectCommission	1.478239	0.805152	0	0	7.310000e+01
465.973145	1.319547	city	3	1	1.368520	1.368520	0	1	0	0	CorrectCommission	0.322166	0.803451	1	0	7.257500e+01
467.312653	1.359469	city	2	1	1.088476	1.088476	0	1	0	0	CorrectCommission	0.619090	0.800074	1	0	7.205000e+01
468.665466	1.346131	city	9	1	1.693187	1.693187	0	1	0	0	CorrectCommission	1.413400	0.795754	1	0	7.152500e+01
469.338531	12.049478	break	0	1	1.293685	1.293685	0	0	0	0	ThoughtProbe	0.070636	0.791471	1	71	71
482.034515	1.293027	city	8	1	1.022033	1.022033	0	1	0	0	CorrectCommission	0.842411	0.788342	1	0	7.132609e+01
483.347443	1.332813	city	9	1	1.673693	1.673693	0	1	0	0	CorrectCommission	1.347880	0.787500	1	0	7.165217e+01
484.680298	1.332932	city	4	1	1.180297	1.180297	0	1	0	0	CorrectCommission	0.310470	0.789983	1	0	7.197826e+01
485.993134	1.292724	city	10	1	1.137691	1.137691	0	1	0	0	CorrectCommission	0.453674	0.796666	1	0	7.230435e+01
487.312683	1.346386	city	1	1	1.034108	1.034108	0	1	0	0	CorrectCommission	0.801825	0.808127	0	0	7.263043e+01
488.638947	1.306152	city	8	1	1.117702	1.117702	0	1	0	0	CorrectCommission	0.520858	0.824574	0	0	7.295652e+01
489.938446	1.292848	city	4	1	0.915842	0.915842	0	1	0	0	CorrectCommission	1.199331	0.845787	0	0	7.328261e+01
491.224670	1.279564	mountain	2	0	0.000000	0.941762	1	0	0	0	CorrectOmission	1.112209	0.871074	0	0	7.360870e+01
492.510895	1.292907	city	3	1	1.134165	1.134165	0	1	0	0	CorrectCommission	0.465526	0.899244	0	0	7.393478e+01
493.810547	1.306403	city	1	1	1.431749	1.431749	0	1	0	0	CorrectCommission	0.534683	0.928698	0	0	7.426087e+01
495.110199	1.292871	mountain	10	1	1.546653	1.546653	0	0	1	0	CommissionError	0.920888	0.957452	0	0	7.458696e+01
496.409668	1.306108	city	4	1	1.659760	1.659760	0	1	0	0	CorrectCommission	1.301051	0.983326	0	0	7.491304e+01
497.715942	1.306397	city	1	1	1.431666	1.431666	0	1	0	0	CorrectCommission	0.534404	1.004153	0	0	7.523913e+01
499.022247	1.306242	city	5	1	1.506517	1.506517	0	1	0	0	CorrectCommission	0.785986	1.018073	0	0	7.556522e+01
500.315186	1.279627	city	10	1	0.483596	0.483596	0	1	0	0	CorrectCommission	2.652150	1.023753	0	0	7.589130e+01
501.601288	1.292576	mountain	1	1	0.618496	0.618496	0	0	1	0	CommissionError	2.198738	1.020589	0	0	7.621739e+01
502.900818	1.306482	city	5	1	1.151053	1.151053	0	1	0	0	CorrectCommission	0.408765	1.008875	0	0	7.654348e+01
504.207123	1.306111	city	2	1	1.363070	1.363070	0	1	0	0	CorrectCommission	0.303846	0.989786	0	0	7.686957e+01
505.526703	1.333073	city	4	1	1.698240	1.698240	0	1	0	0	CorrectCommission	1.430385	0.965222	0	0	7.719565e+01
506.873016	1.359533	city	5	1	1.545978	1.545978	0	1	0	0	CorrectCommission	0.918618	0.937565	0	0	7.752174e+01
508.225891	1.346225	city	6	1	1.634780	1.634780	0	1	0	0	CorrectCommission	1.217089	0.909387	0	0	7.784783e+01
509.558716	1.319415	city	4	1	1.518448	1.518448	0	1	0	0	CorrectCommission	0.826087	0.883122	0	0	7.817391e+01
510.904938	1.373031	city	8	1	1.387299	1.387299	0	1	0	0	CorrectCommission	0.385282	0.860709	0	0	7.850000e+01
512.257874	1.332890	city	4	1	1.391706	1.391706	0	1	0	0	CorrectCommission	0.400095	0.843354	0	0	7.882609e+01
513.610779	1.372891	city	3	1	1.285982	1.285982	0	1	0	0	CorrectCommission	0.044746	0.831380	0	0	7.915217e+01
514.936951	1.279439	city	7	1	1.604817	1.604817	0	1	0	0	CorrectCommission	1.116382	0.824236	0	0	7.947826e+01
516.216492	1.279601	city	9	1	1.590244	1.590244	0	1	0	0	CorrectCommission	1.067399	0.820581	0	0	7.980435e+01
517.556030	1.399567	city	6	1	1.279072	1.279072	0	1	0	0	CorrectCommission	0.021522	0.818610	0	0	8.013043e+01
518.902344	1.293036	city	5	1	1.659727	1.659727	0	1	0	0	CorrectCommission	1.300940	0.816370	0	0	8.045652e+01
520.221985	1.346208	mountain	8	0	0.000000	1.744376	1	0	0	0	CorrectOmission	1.585454	0.812060	0	0	8.078261e+01
521.548096	1.306051	city	5	1	1.657266	1.657266	0	1	0	0	CorrectCommission	1.292668	0.804464	1	0	8.110870e+01
522.854370	1.306423	city	6	0	0.000000	1.522643	0	0	0	1	OmissionError	0.840187	0.793170	1	0	8.143478e+01
524.147339	1.279559	city	9	1	1.417365	1.417365	0	1	0	0	CorrectCommission	0.486338	0.778742	1	0	8.176087e+01
525.460144	1.346058	city	8	1	1.418291	1.418291	0	1	0	0	CorrectCommission	0.489449	0.762703	1	0	8.208696e+01
526.786316	1.306286	city	10	1	0.953086	0.953086	0	1	0	0	CorrectCommission	1.074151	0.747475	1	0	8.241304e+01
528.079834	1.280783	city	7	1	0.911008	0.911008	0	1	0	0	CorrectCommission	1.215579	0.736140	1	0	8.273913e+01
529.386108	1.331763	city	5	1	1.185976	1.185976	0	1	0	0	CorrectCommission	0.291384	0.732129	1	0	8.306522e+01
530.705078	1.306116	city	6	1	1.332209	1.332209	0	1	0	0	CorrectCommission	0.200119	0.738926	1	0	8.339130e+01
532.031311	1.346391	city	3	1	1.128612	1.128612	0	1	0	0	CorrectCommission	0.484189	0.759677	1	0	8.371739e+01
533.370972	1.332913	city	2	1	1.230879	1.230879	0	1	0	0	CorrectCommission	0.140459	0.796816	1	0	8.404348e+01
534.697205	1.319572	city	3	1	1.600519	1.600519	0	1	0	0	CorrectCommission	1.101934	0.851736	0	0	8.436957e+01
535.996765	1.279560	city	7	1	1.363007	1.363007	0	1	0	0	CorrectCommission	0.303634	0.924547	0	0	8.469565e+01
537.282959	1.292801	city	5	1	1.037161	1.037161	0	1	0	0	CorrectCommission	0.791565	1.013979	0	0	8.502174e+01
538.582520	1.306351	city	6	1	1.249508	1.249508	0	1	0	0	CorrectCommission	0.077846	1.117358	0	0	8.534783e+01
539.875427	1.279430	city	4	0	0.000000	1.461855	0	0	0	1	OmissionError	0.635873	1.230832	0	0	8.567391e+01
540.515137	9.943557	break	0	0	0.000000	1.674202	0	0	0	0	ThoughtProbe	1.349592	1.349592	0	86	86
