onset	duration	trial_type	image_type	Press	ReactionTime	ReactionTime_Interpolated	CorrectOmission	CorrectCommission	CommissionError	OmissionError	response_type	nonsmoothVarianceTimeCourse	VarianceTimeCourse	In_the_Zone	ThoughtProbe	ThoughtProbe_Interpolated
0.652923	1.279560	city	8	1	1.198330	1.198330	0	1	0	0	CorrectCommission	0.029948	0.029948	1	0	86
1.932502	1.279597	city	4	1	1.283216	1.283216	0	1	0	0	CorrectCommission	0.580027	0.138558	1	0	86
3.212080	1.279559	city	9	1	1.142944	1.142944	0	1	0	0	CorrectCommission	0.328963	0.244608	1	0	86
4.491744	1.279769	city	2	1	1.073164	1.073164	0	1	0	0	CorrectCommission	0.781149	0.345602	1	0	86
5.771417	1.279577	city	8	1	1.174870	1.174870	0	1	0	0	CorrectCommission	0.122076	0.439198	1	0	86
7.050995	1.279580	mountain	3	0	0.000000	1.240010	1	0	0	0	CorrectOmission	0.300045	0.523337	1	0	86
8.330482	1.279393	city	1	1	1.286483	1.286483	0	1	0	0	CorrectCommission	0.601199	0.596351	1	0	86
9.610061	1.279765	mountain	8	0	0.000000	1.332186	1	0	0	0	CorrectOmission	0.897367	0.657060	1	0	86
10.896307	1.292728	city	2	1	1.413877	1.413877	0	1	0	0	CorrectCommission	1.426741	0.704895	1	0	86
12.182539	1.279736	city	7	1	1.568312	1.568312	0	1	0	0	CorrectCommission	2.427510	0.739948	1	0	86
13.475460	1.306105	city	10	1	1.075550	1.075550	0	1	0	0	CorrectCommission	0.765689	0.762953	1	0	86
14.768334	1.279644	city	3	1	1.175357	1.175357	0	1	0	0	CorrectCommission	0.118919	0.775193	0	0	86
16.047989	1.279664	mountain	10	0	0.000000	1.133416	1	0	0	0	CorrectOmission	0.390704	0.778332	0	0	86
17.327614	1.279586	city	3	1	1.074325	1.074325	0	1	0	0	CorrectCommission	0.773629	0.774190	0	0	86
18.607183	1.279553	city	5	1	1.122679	1.122679	0	1	0	0	CorrectCommission	0.460281	0.764553	1	0	86
19.886675	1.279429	city	2	1	1.018959	1.018959	0	1	0	0	CorrectCommission	1.132411	0.751064	1	0	86
21.166254	1.279728	city	1	1	1.017742	1.017742	0	1	0	0	CorrectCommission	1.140297	0.735148	1	0	86
22.459248	1.306259	city	2	1	1.102392	1.102392	0	1	0	0	CorrectCommission	0.591748	0.718037	1	0	86
23.758831	1.292911	city	8	1	1.257384	1.257384	0	1	0	0	CorrectCommission	0.412631	0.700803	1	0	86
25.045000	1.279426	city	5	1	1.245571	1.245571	0	1	0	0	CorrectCommission	0.336084	0.684428	1	0	86
26.324570	1.279711	city	2	1	0.965898	0.965898	0	1	0	0	CorrectCommission	1.476254	0.669828	1	0	86
27.604223	1.279598	city	10	1	1.030485	1.030485	0	1	0	0	CorrectCommission	1.057718	0.657819	1	0	86
28.883801	1.279557	city	8	1	1.191650	1.191650	0	1	0	0	CorrectCommission	0.013339	0.649105	1	0	86
30.176699	1.306236	city	2	1	1.152111	1.152111	0	1	0	0	CorrectCommission	0.269560	0.644158	1	0	86
31.469620	1.279606	city	6	1	1.248645	1.248645	0	1	0	0	CorrectCommission	0.356003	0.643120	1	0	86
32.749199	1.279551	city	2	1	1.020667	1.020667	0	1	0	0	CorrectCommission	1.121341	0.645710	1	0	86
34.042023	1.306101	city	1	1	1.202844	1.202844	0	1	0	0	CorrectCommission	0.059199	0.651200	1	0	86
35.334930	1.279716	city	7	1	1.233991	1.233991	0	1	0	0	CorrectCommission	0.261043	0.658521	1	0	86
36.627911	1.306239	city	6	1	1.129239	1.129239	0	1	0	0	CorrectCommission	0.417770	0.666355	1	0	86
37.927414	1.292769	city	10	1	0.933108	0.933108	0	1	0	0	CorrectCommission	1.688741	0.673362	1	0	86
39.213573	1.279555	mountain	4	0	0.000000	1.214537	1	0	0	0	CorrectOmission	0.134973	0.678379	1	0	86
40.513134	1.319563	city	6	1	1.503269	1.503269	0	1	0	0	CorrectCommission	2.006016	0.680685	1	0	86
41.819454	1.293074	city	4	1	1.329049	1.329049	0	1	0	0	CorrectCommission	0.877034	0.680074	1	0	86
43.132446	1.332914	city	1	1	1.124037	1.124037	0	1	0	0	CorrectCommission	0.451481	0.676939	1	0	86
44.438625	1.279445	city	2	1	1.194478	1.194478	0	1	0	0	CorrectCommission	0.004990	0.672150	1	0	86
45.731525	1.306357	city	5	1	1.062043	1.062043	0	1	0	0	CorrectCommission	0.853219	0.666922	1	0	86
47.044403	1.319399	city	1	1	1.044185	1.044185	0	1	0	0	CorrectCommission	0.968939	0.662585	1	0	86
48.350639	1.293070	city	8	1	1.178367	1.178367	0	1	0	0	CorrectCommission	0.099417	0.660387	1	0	86
49.650257	1.306167	city	4	1	1.168519	1.168519	0	1	0	0	CorrectCommission	0.163233	0.661354	1	0	86
50.949833	1.292985	city	10	1	1.027475	1.027475	0	1	0	0	CorrectCommission	1.077225	0.666134	1	0	86
52.249439	1.306230	city	1	1	1.103630	1.103630	0	1	0	0	CorrectCommission	0.583726	0.674973	1	0	86
53.548927	1.292745	city	6	1	1.261720	1.261720	0	1	0	0	CorrectCommission	0.440729	0.687742	1	0	86
54.835121	1.279640	city	7	1	1.148421	1.148421	0	1	0	0	CorrectCommission	0.293470	0.703964	1	0	86
56.121288	1.292693	city	2	1	0.927362	0.927362	0	1	0	0	CorrectCommission	1.725979	0.722921	1	0	86
57.407581	1.279894	city	1	1	1.035140	1.035140	0	1	0	0	CorrectCommission	1.027551	0.743719	1	0	86
60.506714	4.918372	break	0	0	0.000000	1.165494	0	0	0	0	ThoughtProbe	0.182834	0.765393	1	86	86
63.618946	1.306096	city	5	1	1.207368	1.207368	0	1	0	0	CorrectCommission	0.088521	0.786937	0	0	8.612500e+01
64.911880	1.279775	city	7	1	1.049710	1.049710	0	1	0	0	CorrectCommission	0.933135	0.807370	0	0	8.625000e+01
66.191551	1.279556	city	8	1	1.365040	1.365040	0	1	0	0	CorrectCommission	1.110266	0.825808	0	0	8.637500e+01
67.497681	1.332713	city	10	1	1.071439	1.071439	0	1	0	0	CorrectCommission	0.792328	0.841556	0	0	8.650000e+01
68.803909	1.279742	mountain	7	0	0.000000	1.325248	1	0	0	0	CorrectOmission	0.852405	0.854201	0	0	8.662500e+01
70.083572	1.279581	city	6	1	1.567863	1.567863	0	1	0	0	CorrectCommission	2.424599	0.863601	0	0	8.675000e+01
71.389824	1.332917	city	7	1	1.240680	1.240680	0	1	0	0	CorrectCommission	0.304389	0.869930	0	0	8.687500e+01
72.696075	1.279585	mountain	10	0	0.000000	1.249142	1	0	0	0	CorrectOmission	0.359224	0.873666	0	0	87
73.975647	1.279570	city	9	1	1.364086	1.364086	0	1	0	0	CorrectCommission	1.104080	0.875431	0	0	8.712500e+01
75.275124	1.319380	city	7	1	1.356348	1.356348	0	1	0	0	CorrectCommission	1.053938	0.875842	0	0	8.725000e+01
76.574600	1.279576	city	8	1	1.158714	1.158714	0	1	0	0	CorrectCommission	0.226768	0.875444	0	0	8.737500e+01
77.874268	1.319755	city	10	1	1.071522	1.071522	0	1	0	0	CorrectCommission	0.791790	0.874550	0	0	8.750000e+01
79.187263	1.306237	city	1	1	1.084960	1.084960	0	1	0	0	CorrectCommission	0.704707	0.873171	0	0	8.762500e+01
80.493408	1.306048	city	10	1	1.494784	1.494784	0	1	0	0	CorrectCommission	1.951033	0.871044	0	0	8.775000e+01
81.786224	1.279581	city	2	1	1.285132	1.285132	0	1	0	0	CorrectCommission	0.592448	0.867666	0	0	8.787500e+01
83.085800	1.319580	city	3	1	1.233483	1.233483	0	1	0	0	CorrectCommission	0.257752	0.862459	0	0	88
84.398796	1.306414	city	4	1	1.319056	1.319056	0	1	0	0	CorrectCommission	0.812277	0.854873	0	0	8.812500e+01
85.691780	1.279549	mountain	7	0	0.000000	1.407382	1	0	0	0	CorrectOmission	1.384652	0.844482	0	0	8.825000e+01
86.971352	1.279595	city	5	1	1.404677	1.404677	0	1	0	0	CorrectCommission	1.367123	0.831150	0	0	8.837500e+01
88.277512	1.332720	city	6	1	1.217155	1.217155	0	1	0	0	CorrectCommission	0.151937	0.815107	0	0	8.850000e+01
89.583740	1.279739	city	8	1	0.984634	0.984634	0	1	0	0	CorrectCommission	1.354840	0.797001	0	0	8.862500e+01
90.876740	1.306263	city	2	1	1.055604	1.055604	0	1	0	0	CorrectCommission	0.894944	0.777785	0	0	8.875000e+01
92.176323	1.292903	city	4	1	1.105538	1.105538	0	1	0	0	CorrectCommission	0.571358	0.758693	1	0	8.887500e+01
93.469223	1.292885	city	1	1	1.036504	1.036504	0	1	0	0	CorrectCommission	1.018714	0.741020	1	0	89
94.762131	1.292937	city	6	1	1.244665	1.244665	0	1	0	0	CorrectCommission	0.330212	0.725932	1	0	8.912500e+01
96.054955	1.292717	city	8	1	1.168919	1.168919	0	1	0	0	CorrectCommission	0.160642	0.714321	1	0	8.925000e+01
97.354500	1.306372	city	3	1	1.122217	1.122217	0	1	0	0	CorrectCommission	0.463275	0.706646	1	0	8.937500e+01
98.654167	1.292962	city	10	1	1.042194	1.042194	0	1	0	0	CorrectCommission	0.981839	0.702808	1	0	8.950000e+01
99.953758	1.306210	city	5	1	1.203954	1.203954	0	1	0	0	CorrectCommission	0.066395	0.702205	1	0	8.962500e+01
101.253319	1.292911	city	2	1	0.990108	0.990108	0	1	0	0	CorrectCommission	1.319369	0.703848	1	0	8.975000e+01
102.552841	1.306144	city	8	1	1.064068	1.064068	0	1	0	0	CorrectCommission	0.840094	0.706410	1	0	8.987500e+01
103.872414	1.332990	city	3	1	1.017220	1.017220	0	1	0	0	CorrectCommission	1.143676	0.708496	1	0	90
105.205353	1.332892	city	10	1	1.201300	1.201300	0	1	0	0	CorrectCommission	0.049196	0.708815	1	0	9.012500e+01
106.538246	1.332892	city	9	1	1.160354	1.160354	0	1	0	0	CorrectCommission	0.216143	0.706397	1	0	9.025000e+01
107.857811	1.306237	city	5	1	1.065714	1.065714	0	1	0	0	CorrectCommission	0.829429	0.700713	1	0	9.037500e+01
109.164047	1.306242	city	10	1	0.845025	0.845025	0	1	0	0	CorrectCommission	2.259539	0.691758	1	0	9.050000e+01
110.470200	1.306068	city	6	1	1.104234	1.104234	0	1	0	0	CorrectCommission	0.579813	0.680103	1	0	9.062500e+01
111.763168	1.279856	city	8	1	1.153240	1.153240	0	1	0	0	CorrectCommission	0.262242	0.666840	1	0	9.075000e+01
113.069489	1.332798	city	10	1	1.054769	1.054769	0	1	0	0	CorrectCommission	0.900352	0.653318	1	0	9.087500e+01
116.175011	4.878242	break	0	0	0.000000	1.085631	0	0	0	0	ThoughtProbe	0.700360	0.640930	1	91	91
119.274025	1.319786	city	1	1	1.173275	1.173275	0	1	0	0	CorrectCommission	0.132410	0.630838	1	0	9.082353e+01
120.573616	1.279402	city	6	1	1.245150	1.245150	0	1	0	0	CorrectCommission	0.333355	0.623784	1	0	9.064706e+01
121.859810	1.292972	city	1	1	1.166919	1.166919	0	1	0	0	CorrectCommission	0.173596	0.619834	1	0	9.047059e+01
123.152771	1.292960	city	10	1	1.158619	1.158619	0	1	0	0	CorrectCommission	0.227387	0.618403	1	0	9.029412e+01
124.452347	1.306192	city	3	1	1.259812	1.259812	0	1	0	0	CorrectCommission	0.428369	0.618346	1	0	9.011765e+01
125.758575	1.306261	mountain	3	0	0.000000	1.382572	1	0	0	0	CorrectOmission	1.223878	0.618184	1	0	8.994118e+01
127.051430	1.279444	city	4	1	1.401664	1.401664	0	1	0	0	CorrectCommission	1.347596	0.616357	1	0	8.976471e+01
128.337585	1.292879	city	10	1	1.191853	1.191853	0	1	0	0	CorrectCommission	0.012022	0.611605	1	0	8.958824e+01
129.637146	1.306238	city	7	1	1.398463	1.398463	0	1	0	0	CorrectCommission	1.326855	0.603186	1	0	8.941176e+01
130.950043	1.319564	city	2	1	1.378555	1.378555	0	1	0	0	CorrectCommission	1.197845	0.590946	1	0	8.923529e+01
132.249725	1.279792	city	1	1	1.313563	1.313563	0	1	0	0	CorrectCommission	0.776683	0.575470	1	0	8.905882e+01
133.549393	1.319549	city	10	1	1.172170	1.172170	0	1	0	0	CorrectCommission	0.139571	0.557887	1	0	8.888235e+01
134.849014	1.279694	city	9	1	1.182453	1.182453	0	1	0	0	CorrectCommission	0.072936	0.539721	1	0	8.870588e+01
136.128586	1.279432	city	3	1	1.197125	1.197125	0	1	0	0	CorrectCommission	0.022142	0.522655	1	0	8.852941e+01
137.414764	1.292933	city	4	1	1.216733	1.216733	0	1	0	0	CorrectCommission	0.149202	0.508324	1	0	8.835294e+01
138.714355	1.306236	city	5	1	0.996688	0.996688	0	1	0	0	CorrectCommission	1.276734	0.498124	1	0	8.817647e+01
140.007156	1.279390	city	9	1	1.259862	1.259862	0	1	0	0	CorrectCommission	0.428691	0.493102	1	0	88
141.293396	1.293069	city	7	1	1.187216	1.187216	0	1	0	0	CorrectCommission	0.042071	0.493968	1	0	8.782353e+01
142.592957	1.306076	city	9	1	1.061555	1.061555	0	1	0	0	CorrectCommission	0.856377	0.501093	1	0	8.764706e+01
143.885788	1.279580	mountain	8	0	0.000000	1.199526	1	0	0	0	CorrectOmission	0.037703	0.514495	1	0	8.747059e+01
145.172119	1.293067	city	10	1	1.339090	1.339090	0	1	0	0	CorrectCommission	0.942104	0.533962	1	0	8.729412e+01
146.478394	1.319501	city	1	1	1.218207	1.218207	0	1	0	0	CorrectCommission	0.158759	0.559048	1	0	8.711765e+01
147.777969	1.279646	city	10	1	1.199318	1.199318	0	1	0	0	CorrectCommission	0.036350	0.589220	1	0	8.694118e+01
149.070923	1.306267	city	6	1	1.220249	1.220249	0	1	0	0	CorrectCommission	0.171988	0.623872	1	0	8.676471e+01
150.377182	1.306231	city	7	1	0.962293	0.962293	0	1	0	0	CorrectCommission	1.499618	0.662423	1	0	8.658824e+01
151.676743	1.292908	city	5	1	1.218555	1.218555	0	1	0	0	CorrectCommission	0.161016	0.704384	1	0	8.641176e+01
152.969574	1.292750	city	10	1	0.934935	0.934935	0	1	0	0	CorrectCommission	1.676900	0.749454	1	0	8.623529e+01
154.255814	1.279722	city	5	1	1.347663	1.347663	0	1	0	0	CorrectCommission	0.997655	0.797367	0	0	8.605882e+01
155.542084	1.292816	city	6	1	1.159693	1.159693	0	1	0	0	CorrectCommission	0.220428	0.847944	0	0	8.588235e+01
156.828339	1.279688	city	10	1	1.021101	1.021101	0	1	0	0	CorrectCommission	1.118529	0.900881	0	0	8.570588e+01
158.107971	1.279577	city	8	1	1.259532	1.259532	0	1	0	0	CorrectCommission	0.426552	0.955536	0	0	8.552941e+01
159.407532	1.319569	city	6	1	1.151744	1.151744	0	1	0	0	CorrectCommission	0.271937	1.010857	0	0	8.535294e+01
160.733749	1.332870	city	7	1	0.944996	0.944996	0	1	0	0	CorrectCommission	1.611705	1.065253	0	0	8.517647e+01
163.779388	4.758393	break	0	0	0.000000	0.945637	0	0	0	0	ThoughtProbe	1.607550	1.116598	0	85	85
166.798309	1.279461	city	10	1	1.090399	1.090399	0	1	0	0	CorrectCommission	0.669467	1.162421	0	0	8.520000e+01
168.084595	1.293092	city	6	1	1.316011	1.316011	0	1	0	0	CorrectCommission	0.792547	1.200143	0	0	8.540000e+01
169.377594	1.292901	mountain	4	0	0.000000	1.482668	1	0	0	0	CorrectOmission	1.872516	1.227385	0	0	8.560000e+01
170.663788	1.279487	city	7	1	1.529143	1.529143	0	1	0	0	CorrectCommission	2.173682	1.242271	0	0	8.580000e+01
171.963333	1.319627	city	3	1	1.394209	1.394209	0	1	0	0	CorrectCommission	1.299288	1.243818	0	0	86
173.269623	1.292930	city	8	1	1.440707	1.440707	0	1	0	0	CorrectCommission	1.600601	1.232133	0	0	8.620000e+01
174.562469	1.292764	mountain	8	0	0.000000	1.500227	1	0	0	0	CorrectOmission	1.986306	1.208395	0	0	8.640000e+01
175.862045	1.306397	city	8	1	1.499282	1.499282	0	1	0	0	CorrectCommission	1.980180	1.174794	0	0	8.660000e+01
177.188339	1.346200	city	5	1	1.364382	1.364382	0	1	0	0	CorrectCommission	1.106000	1.134174	0	0	8.680000e+01
178.554550	1.386215	city	9	1	1.173449	1.173449	0	1	0	0	CorrectCommission	0.131282	1.089688	0	0	87
179.914124	1.332920	city	6	1	1.281109	1.281109	0	1	0	0	CorrectCommission	0.566375	1.044365	0	0	8.720000e+01
181.226944	1.292743	city	4	1	1.134475	1.134475	0	1	0	0	CorrectCommission	0.383841	1.000665	0	0	8.740000e+01
182.513138	1.279627	city	3	1	1.176295	1.176295	0	1	0	0	CorrectCommission	0.112839	0.960317	0	0	8.760000e+01
183.799362	1.292843	city	10	1	1.487123	1.487123	0	1	0	0	CorrectCommission	1.901388	0.924267	0	0	8.780000e+01
185.112259	1.332932	city	3	1	1.306794	1.306794	0	1	0	0	CorrectCommission	0.732820	0.892698	0	0	88
186.445251	1.333060	mountain	5	0	0.000000	1.367407	1	0	0	0	CorrectOmission	1.125605	0.865413	0	0	8.820000e+01
187.764893	1.306210	city	8	1	1.385631	1.385631	0	1	0	0	CorrectCommission	1.243699	0.841992	0	0	8.840000e+01
189.064438	1.292887	city	3	1	1.078134	1.078134	0	1	0	0	CorrectCommission	0.748944	0.822089	0	0	8.860000e+01
190.370667	1.319586	city	2	1	1.114634	1.114634	0	1	0	0	CorrectCommission	0.512417	0.805623	0	0	8.880000e+01
191.676834	1.292737	city	7	1	1.321101	1.321101	0	1	0	0	CorrectCommission	0.825533	0.792796	0	0	89
192.969727	1.293060	city	5	1	1.084588	1.084588	0	1	0	0	CorrectCommission	0.707119	0.784022	0	0	8.920000e+01
194.262726	1.292934	city	10	1	0.999787	0.999787	0	1	0	0	CorrectCommission	1.256646	0.779822	0	0	8.940000e+01
195.548935	1.279467	city	5	1	1.231701	1.231701	0	1	0	0	CorrectCommission	0.246203	0.780601	0	0	8.960000e+01
196.828415	1.279503	city	4	1	1.180969	1.180969	0	1	0	0	CorrectCommission	0.082551	0.786513	0	0	8.980000e+01
198.121384	1.306428	city	5	1	1.143015	1.143015	0	1	0	0	CorrectCommission	0.328501	0.797271	0	0	90
199.420959	1.292717	city	9	1	1.091574	1.091574	0	1	0	0	CorrectCommission	0.661850	0.812120	0	0	9.020000e+01
200.707184	1.279745	city	2	1	0.911965	0.911965	0	1	0	0	CorrectCommission	1.825753	0.829884	0	0	9.040000e+01
201.993515	1.292904	city	9	1	1.100423	1.100423	0	1	0	0	CorrectCommission	0.604509	0.849110	0	0	9.060000e+01
203.279633	1.279345	city	8	1	1.100747	1.100747	0	1	0	0	CorrectCommission	0.602406	0.868251	0	0	9.080000e+01
204.565796	1.292989	city	10	1	0.916856	0.916856	0	1	0	0	CorrectCommission	1.794060	0.885848	0	0	91
205.858826	1.293059	city	7	1	1.245320	1.245320	0	1	0	0	CorrectCommission	0.334455	0.900694	0	0	9.120000e+01
207.158447	1.306191	city	9	1	0.985709	0.985709	0	1	0	0	CorrectCommission	1.347879	0.912021	0	0	9.140000e+01
208.471283	1.319481	city	3	1	1.060220	1.060220	0	1	0	0	CorrectCommission	0.865030	0.919482	0	0	9.160000e+01
209.804199	1.346354	city	10	1	1.108688	1.108688	0	1	0	0	CorrectCommission	0.550950	0.923196	0	0	9.180000e+01
211.123795	1.292839	city	4	1	1.430518	1.430518	0	1	0	0	CorrectCommission	1.534574	0.923702	0	0	92
212.423355	1.306287	city	3	1	1.104993	1.104993	0	1	0	0	CorrectCommission	0.574893	0.921778	0	0	9.220000e+01
213.742981	1.332936	city	10	1	0.995922	0.995922	0	1	0	0	CorrectCommission	1.281692	0.918415	0	0	9.240000e+01
215.055801	1.292726	city	5	1	1.435404	1.435404	0	1	0	0	CorrectCommission	1.566236	0.914593	0	0	9.260000e+01
216.355286	1.306248	city	2	1	1.138742	1.138742	0	1	0	0	CorrectCommission	0.356190	0.911139	0	0	9.280000e+01
219.480942	4.945041	break	0	0	0.000000	1.226588	0	0	0	0	ThoughtProbe	0.213066	0.908653	0	93	93
222.613312	1.319715	city	5	1	1.339444	1.339444	0	1	0	0	CorrectCommission	0.944400	0.907408	0	0	9.320588e+01
223.932953	1.319570	city	1	1	1.117816	1.117816	0	1	0	0	CorrectCommission	0.491794	0.907322	0	0	9.341176e+01
225.252472	1.319465	city	2	1	1.075949	1.075949	0	1	0	0	CorrectCommission	0.763105	0.908135	0	0	9.361765e+01
226.598618	1.372813	city	5	1	0.960471	0.960471	0	1	0	0	CorrectCommission	1.511427	0.909465	0	0	9.382353e+01
227.924896	1.279748	city	4	1	0.964940	0.964940	0	1	0	0	CorrectCommission	1.482467	0.911057	0	0	9.402941e+01
229.217819	1.306090	mountain	8	0	0.000000	1.271929	1	0	0	0	CorrectOmission	0.506886	0.912937	0	0	9.423529e+01
230.510727	1.279744	city	8	1	1.474950	1.474950	0	1	0	0	CorrectCommission	1.822507	0.915481	0	0	9.444118e+01
231.817047	1.332894	city	1	1	1.167516	1.167516	0	1	0	0	CorrectCommission	0.169733	0.919353	0	0	9.464706e+01
233.129944	1.292913	city	9	1	1.044584	1.044584	0	1	0	0	CorrectCommission	0.966356	0.925505	0	0	9.485294e+01
234.429443	1.306084	city	5	1	1.031110	1.031110	0	1	0	0	CorrectCommission	1.053666	0.934867	0	0	9.505882e+01
235.722275	1.279571	city	6	1	1.177604	1.177604	0	1	0	0	CorrectCommission	0.104360	0.948221	0	0	9.526471e+01
237.015167	1.306210	city	7	1	0.988159	0.988159	0	1	0	0	CorrectCommission	1.331999	0.965897	0	0	9.547059e+01
238.314804	1.293074	city	8	1	1.113423	1.113423	0	1	0	0	CorrectCommission	0.520262	0.987633	0	0	9.567647e+01
239.607758	1.292831	city	2	1	1.030976	1.030976	0	1	0	0	CorrectCommission	1.054540	1.012503	0	0	9.588235e+01
240.907288	1.306219	city	1	1	1.051866	1.051866	0	1	0	0	CorrectCommission	0.919168	1.038925	0	0	9.608824e+01
242.226883	1.332986	mountain	4	0	0.000000	1.275136	1	0	0	0	CorrectOmission	0.527665	1.064830	0	0	9.629412e+01
243.539856	1.292963	city	5	1	1.458797	1.458797	0	1	0	0	CorrectCommission	1.717827	1.087888	0	0	9.650000e+01
244.832779	1.292877	city	6	1	1.360861	1.360861	0	1	0	0	CorrectCommission	1.083182	1.105770	0	0	9.670588e+01
246.138992	1.319543	city	1	1	1.000497	1.000497	0	1	0	0	CorrectCommission	1.252049	1.116485	0	0	9.691176e+01
247.451904	1.306264	city	8	1	0.832460	0.832460	0	1	0	0	CorrectCommission	2.340961	1.118576	0	0	9.711765e+01
248.764801	1.319538	city	5	1	1.003474	1.003474	0	1	0	0	CorrectCommission	1.232757	1.111326	0	0	9.732353e+01
250.077621	1.306101	city	10	1	0.929597	0.929597	0	1	0	0	CorrectCommission	1.711495	1.094862	0	0	9.752941e+01
251.390518	1.319707	city	4	1	1.201465	1.201465	0	1	0	0	CorrectCommission	0.050267	1.070020	0	0	9.773529e+01
252.723404	1.346057	city	1	1	1.040575	1.040575	0	1	0	0	CorrectCommission	0.992337	1.038274	0	0	9.794118e+01
254.056290	1.319728	city	2	1	0.933572	0.933572	0	1	0	0	CorrectCommission	1.685738	1.001529	0	0	9.814706e+01
255.375946	1.319585	city	4	1	1.076198	1.076198	0	1	0	0	CorrectCommission	0.761492	0.961950	0	0	9.835294e+01
256.688873	1.306246	city	7	1	1.228351	1.228351	0	1	0	0	CorrectCommission	0.224492	0.921882	0	0	9.855882e+01
258.008362	1.332730	city	10	1	0.964743	0.964743	0	1	0	0	CorrectCommission	1.483740	0.883664	0	0	9.876471e+01
259.314575	1.279712	city	7	1	1.208968	1.208968	0	1	0	0	CorrectCommission	0.098890	0.849509	0	0	9.897059e+01
260.600830	1.292798	city	8	1	1.474650	1.474650	0	1	0	0	CorrectCommission	1.820557	0.821477	0	0	9.917647e+01
261.907074	1.319692	city	6	1	1.258579	1.258579	0	1	0	0	CorrectCommission	0.420377	0.801265	0	0	9.938235e+01
263.259949	1.386039	city	2	1	1.060106	1.060106	0	1	0	0	CorrectCommission	0.865770	0.790163	0	0	9.958824e+01
264.612823	1.319749	city	7	1	1.209634	1.209634	0	1	0	0	CorrectCommission	0.103204	0.788849	0	0	9.979412e+01
267.951721	5.358016	break	0	0	0.000000	1.228891	0	0	0	0	ThoughtProbe	0.227991	0.797267	0	100	100
271.270630	1.279834	city	7	1	1.149974	1.149974	0	1	0	0	CorrectCommission	0.283406	0.814561	0	0	9.997500e+01
272.556915	1.292704	city	10	1	1.004982	1.004982	0	1	0	0	CorrectCommission	1.222980	0.839049	0	0	9.995000e+01
273.849792	1.293061	city	7	1	1.336223	1.336223	0	1	0	0	CorrectCommission	0.923526	0.868361	0	0	9.992500e+01
275.182739	1.372828	city	8	1	1.258555	1.258555	0	1	0	0	CorrectCommission	0.420220	0.899744	0	0	9.990000e+01
276.522217	1.306120	city	10	1	1.181102	1.181102	0	1	0	0	CorrectCommission	0.081688	0.930341	0	0	9.987500e+01
277.815155	1.279764	city	7	1	1.393870	1.393870	0	1	0	0	CorrectCommission	1.297089	0.957580	0	0	9.985000e+01
279.114807	1.319567	mountain	4	0	0.000000	1.616830	1	0	0	0	CorrectOmission	2.741915	0.979505	0	0	9.982500e+01
280.414368	1.279554	city	3	1	1.630243	1.630243	0	1	0	0	CorrectCommission	2.828837	0.994979	0	0	9.980000e+01
281.713898	1.319465	city	5	1	1.214372	1.214372	0	1	0	0	CorrectCommission	0.133905	1.003852	0	0	9.977500e+01
283.013397	1.279550	city	6	1	1.313099	1.313099	0	1	0	0	CorrectCommission	0.773679	1.006823	0	0	9.975000e+01
284.333008	1.359685	city	3	1	1.202231	1.202231	0	1	0	0	CorrectCommission	0.055227	1.005129	0	0	9.972500e+01
285.672638	1.319555	city	8	1	0.996712	0.996712	0	1	0	0	CorrectCommission	1.276573	1.000257	0	0	9.970000e+01
286.972137	1.279446	mountain	3	0	0.000000	1.246797	1	0	0	0	CorrectOmission	0.344024	0.993525	0	0	9.967500e+01
288.265015	1.306296	city	3	1	1.471747	1.471747	0	1	0	0	CorrectCommission	1.801751	0.985925	0	0	9.965000e+01
289.564575	1.292830	city	9	1	1.190828	1.190828	0	1	0	0	CorrectCommission	0.018665	0.977894	0	0	9.962500e+01
290.884125	1.346253	city	8	1	1.013827	1.013827	0	1	0	0	CorrectCommission	1.165663	0.969361	0	0	9.960000e+01
292.203705	1.292918	city	4	1	1.018812	1.018812	0	1	0	0	CorrectCommission	1.133364	0.959825	0	0	9.957500e+01
293.496674	1.293055	city	10	1	0.967967	0.967967	0	1	0	0	CorrectCommission	1.462848	0.948548	0	0	9.955000e+01
294.822968	1.359529	city	7	1	1.017876	1.017876	0	1	0	0	CorrectCommission	1.139430	0.934804	0	0	9.952500e+01
296.142517	1.279584	city	3	1	0.939253	0.939253	0	1	0	0	CorrectCommission	1.648922	0.918031	0	0	9.950000e+01
297.448730	1.332790	city	1	1	1.206811	1.206811	0	1	0	0	CorrectCommission	0.084908	0.897959	0	0	9.947500e+01
298.761627	1.293013	city	9	1	1.221187	1.221187	0	1	0	0	CorrectCommission	0.178069	0.874694	0	0	9.945000e+01
300.047913	1.279577	mountain	2	0	0.000000	1.391820	1	0	0	0	CorrectOmission	1.283802	0.848645	0	0	9.942500e+01
301.327545	1.279678	city	4	1	1.442612	1.442612	0	1	0	0	CorrectCommission	1.612946	0.820478	0	0	9.940000e+01
302.627075	1.319401	city	3	1	1.097468	1.097468	0	1	0	0	CorrectCommission	0.623658	0.791041	0	0	9.937500e+01
303.933197	1.292814	city	1	1	1.048567	1.048567	0	1	0	0	CorrectCommission	0.940543	0.761301	1	0	9.935000e+01
305.226135	1.293084	city	3	1	1.206827	1.206827	0	1	0	0	CorrectCommission	0.085015	0.732212	1	0	9.932500e+01
306.512451	1.279523	city	10	1	1.086523	1.086523	0	1	0	0	CorrectCommission	0.694581	0.704663	1	0	9.930000e+01
307.792023	1.279643	city	2	1	1.122394	1.122394	0	1	0	0	CorrectCommission	0.462127	0.679431	1	0	9.927500e+01
309.084869	1.306048	city	9	1	1.318724	1.318724	0	1	0	0	CorrectCommission	0.810126	0.657215	1	0	9.925000e+01
310.410950	1.346113	city	7	1	1.295042	1.295042	0	1	0	0	CorrectCommission	0.656663	0.638684	1	0	9.922500e+01
311.730591	1.293187	city	4	1	1.131866	1.131866	0	1	0	0	CorrectCommission	0.400749	0.624481	1	0	9.920000e+01
313.056946	1.359477	city	9	1	1.126276	1.126276	0	1	0	0	CorrectCommission	0.436977	0.615251	1	0	9.917500e+01
314.389740	1.306143	city	10	1	0.978236	0.978236	0	1	0	0	CorrectCommission	1.396301	0.611564	1	0	9.915000e+01
315.696014	1.306410	city	6	1	1.247686	1.247686	0	1	0	0	CorrectCommission	0.349789	0.613866	1	0	9.912500e+01
317.008911	1.319401	city	10	1	1.100284	1.100284	0	1	0	0	CorrectCommission	0.605409	0.622336	1	0	9.910000e+01
318.321808	1.306392	city	3	1	1.186758	1.186758	0	1	0	0	CorrectCommission	0.045037	0.636706	1	0	9.907500e+01
319.621490	1.292937	city	4	1	1.156948	1.156948	0	1	0	0	CorrectCommission	0.238210	0.656161	1	0	9.905000e+01
320.927643	1.319386	city	7	1	1.157883	1.157883	0	1	0	0	CorrectCommission	0.232152	0.679217	1	0	9.902500e+01
323.979889	4.785100	break	0	0	0.000000	1.073498	0	0	0	0	ThoughtProbe	0.778986	0.703836	1	99	99
327.025574	1.306260	city	8	1	1.063661	1.063661	0	1	0	0	CorrectCommission	0.842735	0.727549	1	0	9.869565e+01
328.345215	1.333050	city	5	1	1.288239	1.288239	0	1	0	0	CorrectCommission	0.612577	0.747775	1	0	9.839130e+01
329.684845	1.346190	city	1	1	0.937665	0.937665	0	1	0	0	CorrectCommission	1.659214	0.762172	1	0	9.808696e+01
331.024414	1.332923	city	8	1	1.074825	1.074825	0	1	0	0	CorrectCommission	0.770386	0.768959	1	0	9.778261e+01
332.377228	1.372700	city	5	1	1.016239	1.016239	0	1	0	0	CorrectCommission	1.150037	0.767252	1	0	9.747826e+01
333.710114	1.293090	city	9	1	0.910783	0.910783	0	1	0	0	CorrectCommission	1.833414	0.757164	1	0	9.717391e+01
335.003082	1.292885	mountain	7	0	0.000000	1.116014	1	0	0	0	CorrectOmission	0.503476	0.739835	1	0	9.686957e+01
336.295990	1.292904	city	2	1	1.338478	1.338478	0	1	0	0	CorrectCommission	0.938139	0.717276	1	0	9.656522e+01
337.628845	1.372795	city	7	1	1.284723	1.284723	0	1	0	0	CorrectCommission	0.589795	0.692048	1	0	9.626087e+01
338.968384	1.306322	city	10	1	1.211178	1.211178	0	1	0	0	CorrectCommission	0.113209	0.666917	1	0	9.595652e+01
340.261230	1.279356	city	5	1	1.238571	1.238571	0	1	0	0	CorrectCommission	0.290722	0.644464	1	0	9.565217e+01
341.560791	1.319774	city	3	1	1.169590	1.169590	0	1	0	0	CorrectCommission	0.156288	0.626816	1	0	9.534783e+01
342.880432	1.319492	mountain	1	0	0.000000	1.225501	1	0	0	0	CorrectOmission	0.206026	0.615469	1	0	9.504348e+01
344.193359	1.306355	mountain	2	0	0.000000	1.309875	1	0	0	0	CorrectOmission	0.752787	0.611279	1	0	9.473913e+01
345.492920	1.292743	city	3	1	1.326284	1.326284	0	1	0	0	CorrectCommission	0.859120	0.614535	1	0	9.443478e+01
346.799133	1.319731	city	1	1	1.178300	1.178300	0	1	0	0	CorrectCommission	0.099851	0.625147	1	0	9.413043e+01
348.105438	1.292884	city	5	1	1.444773	1.444773	0	1	0	0	CorrectCommission	1.626950	0.642837	1	0	9.382609e+01
349.445007	1.386222	city	9	1	1.211033	1.211033	0	1	0	0	CorrectCommission	0.112271	0.667216	1	0	9.352174e+01
350.804504	1.332767	city	1	1	0.993076	0.993076	0	1	0	0	CorrectCommission	1.300136	0.697925	1	0	9.321739e+01
352.143982	1.346184	city	6	1	1.210885	1.210885	0	1	0	0	CorrectCommission	0.111309	0.734464	1	0	9.291304e+01
353.490265	1.346382	city	10	1	1.081742	1.081742	0	1	0	0	CorrectCommission	0.725564	0.776179	0	0	9.260870e+01
354.849823	1.372742	city	1	1	1.206591	1.206591	0	1	0	0	CorrectCommission	0.083481	0.822005	0	0	9.230435e+01
356.189301	1.306217	city	10	1	1.275899	1.275899	0	1	0	0	CorrectCommission	0.532613	0.870429	0	0	92
357.482178	1.279570	city	3	1	1.359853	1.359853	0	1	0	0	CorrectCommission	1.076651	0.919415	0	0	9.169565e+01
358.775177	1.306421	city	10	1	1.422245	1.422245	0	1	0	0	CorrectCommission	1.480963	0.966466	0	0	9.139130e+01
360.128052	1.399302	city	9	1	1.345271	1.345271	0	1	0	0	CorrectCommission	0.982159	1.008874	0	0	9.108696e+01
361.500916	1.346459	city	6	1	1.120308	1.120308	0	1	0	0	CorrectCommission	0.475648	1.043966	0	0	9.078261e+01
362.827209	1.306077	city	5	1	0.938323	0.938323	0	1	0	0	CorrectCommission	1.654945	1.069413	0	0	9.047826e+01
364.133392	1.306298	city	2	1	0.818920	0.818920	0	1	0	0	CorrectCommission	2.428701	1.083568	0	0	9.017391e+01
365.446320	1.319587	mountain	8	1	1.046654	1.046654	0	0	1	0	CommissionError	0.952940	1.085697	0	0	8.986957e+01
366.759277	1.306320	city	1	1	1.487911	1.487911	0	1	0	0	CorrectCommission	1.906494	1.076151	0	0	8.956522e+01
368.072144	1.319392	city	7	1	1.341357	1.341357	0	1	0	0	CorrectCommission	0.956796	1.056250	0	0	8.926087e+01
369.405029	1.346394	city	2	1	1.040216	1.040216	0	1	0	0	CorrectCommission	0.994660	1.028171	0	0	8.895652e+01
370.731354	1.306238	city	10	1	1.086678	1.086678	0	1	0	0	CorrectCommission	0.693579	0.994653	0	0	8.865217e+01
372.030823	1.292724	city	1	1	1.016811	1.016811	0	1	0	0	CorrectCommission	1.146329	0.958669	0	0	8.834783e+01
373.323578	1.292783	city	4	1	1.219791	1.219791	0	1	0	0	CorrectCommission	0.169022	0.923041	0	0	8.804348e+01
374.609894	1.279865	city	5	1	1.336865	1.336865	0	1	0	0	CorrectCommission	0.927683	0.890208	0	0	8.773913e+01
375.916290	1.332900	city	1	1	1.049543	1.049543	0	1	0	0	CorrectCommission	0.934217	0.861976	0	0	8.743478e+01
377.249176	1.332895	city	9	1	1.079696	1.079696	0	1	0	0	CorrectCommission	0.738821	0.839411	0	0	8.713043e+01
378.555420	1.279574	city	7	1	1.352068	1.352068	0	1	0	0	CorrectCommission	1.026201	0.822858	0	0	8.682609e+01
379.894989	1.399541	city	2	1	1.231888	1.231888	0	1	0	0	CorrectCommission	0.247410	0.811954	0	0	8.652174e+01
381.247864	1.306263	city	8	1	1.223693	1.223693	0	1	0	0	CorrectCommission	0.194307	0.805821	0	0	8.621739e+01
382.547455	1.292881	city	2	1	1.071880	1.071880	0	1	0	0	CorrectCommission	0.789472	0.803179	0	0	8.591304e+01
383.833588	1.279420	city	8	1	1.323503	1.323503	0	1	0	0	CorrectCommission	0.841095	0.802584	0	0	8.560870e+01
385.133179	1.319751	city	3	1	1.511588	1.511588	0	1	0	0	CorrectCommission	2.059927	0.802611	0	0	8.530435e+01
389.665070	7.744008	break	0	0	0.000000	1.379628	0	0	0	0	ThoughtProbe	1.204797	0.801941	0	85	85
394.210175	1.346214	city	5	1	1.206905	1.206905	0	1	0	0	CorrectCommission	0.085519	0.799572	0	0	8.470588e+01
395.556458	1.346336	city	6	1	1.272703	1.272703	0	1	0	0	CorrectCommission	0.511904	0.794828	0	0	8.441176e+01
396.896057	1.332901	city	9	1	1.097490	1.097490	0	1	0	0	CorrectCommission	0.623512	0.787374	0	0	8.411765e+01
398.222229	1.319428	city	6	1	1.040496	1.040496	0	1	0	0	CorrectCommission	0.992849	0.777239	0	0	8.382353e+01
399.541809	1.319706	city	10	1	1.051541	1.051541	0	1	0	0	CorrectCommission	0.921271	0.764782	1	0	8.352941e+01
400.848114	1.292905	city	5	1	1.230619	1.230619	0	1	0	0	CorrectCommission	0.239192	0.750734	1	0	8.323529e+01
402.134247	1.279391	mountain	7	0	0.000000	1.405444	1	0	0	0	CorrectOmission	1.372089	0.736120	1	0	8.294118e+01
403.440399	1.332897	city	9	1	1.461051	1.461051	0	1	0	0	CorrectCommission	1.732435	0.722164	1	0	8.264706e+01
404.793304	1.372907	city	6	1	1.282477	1.282477	0	1	0	0	CorrectCommission	0.575243	0.710145	1	0	8.235294e+01
406.139526	1.319547	city	3	1	1.183196	1.183196	0	1	0	0	CorrectCommission	0.068118	0.701265	1	0	8.205882e+01
407.445831	1.293069	city	5	1	1.210417	1.210417	0	1	0	0	CorrectCommission	0.108274	0.696335	1	0	8.176471e+01
408.765503	1.346245	city	4	1	1.120724	1.120724	0	1	0	0	CorrectCommission	0.472953	0.695646	1	0	8.147059e+01
410.105042	1.332875	city	7	1	1.165352	1.165352	0	1	0	0	CorrectCommission	0.183754	0.698812	1	0	8.117647e+01
411.431274	1.319538	city	8	1	1.325003	1.325003	0	1	0	0	CorrectCommission	0.850815	0.704823	1	0	8.088235e+01
412.764160	1.346245	city	2	1	1.244301	1.244301	0	1	0	0	CorrectCommission	0.327849	0.712149	1	0	8.058824e+01
414.103638	1.332756	city	9	1	1.271682	1.271682	0	1	0	0	CorrectCommission	0.505287	0.719038	1	0	8.029412e+01
415.423157	1.306247	mountain	2	0	0.000000	1.453203	1	0	0	0	CorrectOmission	1.681578	0.723803	1	0	80
416.722809	1.293037	city	10	1	1.528539	1.528539	0	1	0	0	CorrectCommission	2.169768	0.725113	1	0	7.970588e+01
418.062408	1.386211	city	8	1	1.237365	1.237365	0	1	0	0	CorrectCommission	0.282903	0.722211	1	0	7.941176e+01
419.421906	1.332735	city	10	1	1.060617	1.060617	0	1	0	0	CorrectCommission	0.862459	0.715056	1	0	7.911765e+01
420.768036	1.359527	city	6	1	1.240444	1.240444	0	1	0	0	CorrectCommission	0.302859	0.704172	1	0	7.882353e+01
422.100983	1.306421	city	3	1	1.114971	1.114971	0	1	0	0	CorrectCommission	0.510233	0.690610	1	0	7.852941e+01
423.440582	1.372748	city	1	1	1.338099	1.338099	0	1	0	0	CorrectCommission	0.935682	0.675628	1	0	7.823529e+01
424.780151	1.306370	city	4	1	1.145541	1.145541	0	1	0	0	CorrectCommission	0.312132	0.660497	1	0	7.794118e+01
426.099792	1.332919	city	7	1	1.151346	1.151346	0	1	0	0	CorrectCommission	0.274513	0.646341	1	0	7.764706e+01
427.426025	1.319569	city	3	1	1.129775	1.129775	0	1	0	0	CorrectCommission	0.414302	0.633990	1	0	7.735294e+01
428.725525	1.279401	city	8	1	1.397048	1.397048	0	1	0	0	CorrectCommission	1.317684	0.623964	1	0	7.705882e+01
430.038422	1.346396	city	6	1	1.182065	1.182065	0	1	0	0	CorrectCommission	0.075451	0.616502	1	0	7.676471e+01
431.358093	1.292943	city	5	1	1.355400	1.355400	0	1	0	0	CorrectCommission	1.047797	0.611679	1	0	7.647059e+01
432.690887	1.372666	city	4	1	1.142469	1.142469	0	1	0	0	CorrectCommission	0.332041	0.609388	1	0	7.617647e+01
434.037109	1.319751	city	2	1	1.032569	1.032569	0	1	0	0	CorrectCommission	1.044215	0.609482	1	0	7.588235e+01
435.356659	1.319383	city	8	1	1.285172	1.285172	0	1	0	0	CorrectCommission	0.592706	0.611713	1	0	7.558824e+01
436.669464	1.306237	city	10	1	1.276530	1.276530	0	1	0	0	CorrectCommission	0.536700	0.615742	1	0	7.529412e+01
439.735199	4.825233	break	0	0	0.000000	1.181616	0	0	0	0	ThoughtProbe	0.078361	0.621061	1	75	75
442.814270	1.332897	city	2	1	1.132641	1.132641	0	1	0	0	CorrectCommission	0.395726	0.627004	1	0	7.497826e+01
444.120453	1.279448	mountain	8	0	0.000000	1.261816	1	0	0	0	CorrectOmission	0.441355	0.632738	1	0	7.495652e+01
445.399963	1.279581	city	1	1	1.376778	1.376778	0	1	0	0	CorrectCommission	1.186332	0.637380	1	0	7.493478e+01
446.739502	1.399510	city	4	1	1.285165	1.285165	0	1	0	0	CorrectCommission	0.592655	0.640131	1	0	7.491304e+01
448.099152	1.319754	mountain	9	0	0.000000	1.240819	1	0	0	0	CorrectOmission	0.305290	0.640468	1	0	7.489130e+01
449.398804	1.279565	city	3	1	1.319047	1.319047	0	1	0	0	CorrectCommission	0.812223	0.638269	1	0	7.486957e+01
450.705017	1.332882	city	8	1	1.595153	1.595153	0	1	0	0	CorrectCommission	2.601441	0.633925	1	0	7.484783e+01
452.057922	1.372908	city	6	1	1.188435	1.188435	0	1	0	0	CorrectCommission	0.034173	0.628255	1	0	7.482609e+01
453.410736	1.332711	city	9	1	1.202647	1.202647	0	1	0	0	CorrectCommission	0.057926	0.622497	1	0	7.480435e+01
454.750214	1.346268	city	10	1	1.126801	1.126801	0	1	0	0	CorrectCommission	0.433571	0.617921	1	0	7.478261e+01
456.069763	1.292858	city	9	1	1.275020	1.275020	0	1	0	0	CorrectCommission	0.526919	0.615627	1	0	7.476087e+01
457.376068	1.319752	mountain	9	0	0.000000	1.269108	1	0	0	0	CorrectOmission	0.488608	0.616255	1	0	7.473913e+01
458.689087	1.306239	city	10	1	1.191545	1.191545	0	1	0	0	CorrectCommission	0.014020	0.619836	1	0	7.471739e+01
459.995239	1.306055	city	1	1	1.124809	1.124809	0	1	0	0	CorrectCommission	0.446482	0.625801	1	0	7.469565e+01
461.341461	1.386391	city	2	1	1.120401	1.120401	0	1	0	0	CorrectCommission	0.475045	0.632984	1	0	7.467391e+01
462.707733	1.346205	city	10	1	1.111726	1.111726	0	1	0	0	CorrectCommission	0.531259	0.639994	1	0	7.465217e+01
464.027313	1.292908	city	6	1	1.380802	1.380802	0	1	0	0	CorrectCommission	1.212405	0.645554	1	0	7.463043e+01
465.320221	1.292927	city	10	1	1.386118	1.386118	0	1	0	0	CorrectCommission	1.246854	0.648833	1	0	7.460870e+01
466.619781	1.306215	city	4	1	1.384935	1.384935	0	1	0	0	CorrectCommission	1.239187	0.649752	1	0	7.458696e+01
467.939331	1.332893	city	8	1	1.060589	1.060589	0	1	0	0	CorrectCommission	0.862641	0.649154	1	0	7.456522e+01
469.285492	1.359393	city	1	1	1.045211	1.045211	0	1	0	0	CorrectCommission	0.962293	0.648708	1	0	7.454348e+01
470.631683	1.332975	city	7	1	1.184710	1.184710	0	1	0	0	CorrectCommission	0.058312	0.650700	1	0	7.452174e+01
471.964661	1.333027	city	3	1	1.184189	1.184189	0	1	0	0	CorrectCommission	0.061684	0.657640	1	0	7.450000e+01
473.290955	1.319517	city	10	1	1.157160	1.157160	0	1	0	0	CorrectCommission	0.236840	0.671803	1	0	7.447826e+01
474.597168	1.292917	mountain	9	0	0.000000	1.230988	1	0	0	0	CorrectOmission	0.241580	0.694777	1	0	7.445652e+01
475.923401	1.359579	city	2	1	1.306368	1.306368	0	1	0	0	CorrectCommission	0.730060	0.727159	1	0	7.443478e+01
477.276306	1.346235	city	10	1	1.283996	1.283996	0	1	0	0	CorrectCommission	0.585082	0.768352	1	0	7.441304e+01
478.602448	1.306035	city	4	1	1.288624	1.288624	0	1	0	0	CorrectCommission	0.615072	0.816576	0	0	7.439130e+01
479.895264	1.279572	city	8	1	1.177618	1.177618	0	1	0	0	CorrectCommission	0.104268	0.869001	0	0	7.436957e+01
481.194916	1.319742	city	5	1	1.489119	1.489119	0	1	0	0	CorrectCommission	1.914324	0.922151	0	0	7.434783e+01
482.514557	1.319575	city	10	1	1.147839	1.147839	0	1	0	0	CorrectCommission	0.297242	0.972246	0	0	7.432609e+01
483.827393	1.306071	city	7	1	1.338056	1.338056	0	1	0	0	CorrectCommission	0.935402	1.015764	0	0	7.430435e+01
485.140198	1.319555	city	3	1	1.731179	1.731179	0	1	0	0	CorrectCommission	3.482922	1.049802	0	0	7.428261e+01
486.453217	1.306443	city	8	1	1.355439	1.355439	0	1	0	0	CorrectCommission	1.048051	1.072379	0	0	7.426087e+01
487.812836	1.412812	city	3	1	1.140721	1.140721	0	1	0	0	CorrectCommission	0.343366	1.082816	0	0	7.423913e+01
489.179047	1.319587	city	10	1	0.883960	0.883960	0	1	0	0	CorrectCommission	2.007229	1.081589	0	0	7.421739e+01
490.485199	1.292734	city	5	1	1.356381	1.356381	0	1	0	0	CorrectCommission	1.054154	1.070196	0	0	7.419565e+01
491.804749	1.346394	city	3	1	1.120363	1.120363	0	1	0	0	CorrectCommission	0.475293	1.051035	0	0	7.417391e+01
493.137726	1.319572	city	8	1	1.466323	1.466323	0	1	0	0	CorrectCommission	1.766597	1.026944	0	0	7.415217e+01
494.490631	1.386203	city	4	1	1.101769	1.101769	0	1	0	0	CorrectCommission	0.595787	1.000772	0	0	7.413043e+01
495.843506	1.319522	city	2	1	0.992970	0.992970	0	1	0	0	CorrectCommission	1.300824	0.975156	0	0	7.410870e+01
497.169647	1.332761	city	7	1	1.096537	1.096537	0	1	0	0	CorrectCommission	0.629692	0.952079	0	0	7.408696e+01
498.502472	1.332894	city	8	1	1.096985	1.096985	0	1	0	0	CorrectCommission	0.626789	0.932667	0	0	7.406522e+01
499.822052	1.306262	city	5	1	1.175474	1.175474	0	1	0	0	CorrectCommission	0.118162	0.917130	0	0	7.404348e+01
501.135010	1.319705	city	1	1	1.115595	1.115595	0	1	0	0	CorrectCommission	0.506186	0.904779	0	0	7.402174e+01
504.114075	4.638382	break	0	0	0.000000	1.055717	0	0	0	0	ThoughtProbe	0.894211	0.894211	0	74	74
