onset	duration	trial_type	image_type	Press	ReactionTime	ReactionTime_Interpolated	CorrectOmission	CorrectCommission	CommissionError	OmissionError	response_type	nonsmoothVarianceTimeCourse	VarianceTimeCourse	In_the_Zone	ThoughtProbe	ThoughtProbe_Interpolated
0.659326	1.292888	city	5	1	1.189173	1.189173	0	1	0	0	CorrectCommission	0.092476	0.092476	1	0	30
1.945544	1.279548	city	4	1	1.106980	1.106980	0	1	0	0	CorrectCommission	0.506650	0.161429	1	0	30
3.225203	1.279769	city	9	1	0.911271	0.911271	0	1	0	0	CorrectCommission	1.492838	0.227318	1	0	30
4.504783	1.279392	city	8	1	1.075889	1.075889	0	1	0	0	CorrectCommission	0.663320	0.287486	1	0	30
5.784268	1.279577	city	6	1	1.178241	1.178241	0	1	0	0	CorrectCommission	0.147562	0.340140	1	0	30
7.070529	1.292944	city	8	1	1.009074	1.009074	0	1	0	0	CorrectCommission	1.000004	0.384511	1	0	30
8.356845	1.279688	city	10	1	1.254159	1.254159	0	1	0	0	CorrectCommission	0.234990	0.420883	1	0	30
9.649828	1.306280	city	6	1	1.339803	1.339803	0	1	0	0	CorrectCommission	0.666551	0.450512	1	0	30
10.949327	1.292717	mountain	6	0	0.000000	1.291453	1	0	0	0	CorrectOmission	0.422917	0.475317	1	0	30
12.242221	1.293071	city	1	1	1.247577	1.247577	0	1	0	0	CorrectCommission	0.201823	0.497547	1	0	30
13.528545	1.279578	city	9	1	1.346640	1.346640	0	1	0	0	CorrectCommission	0.701004	0.519397	1	0	30
14.814754	1.292840	city	8	1	1.084386	1.084386	0	1	0	0	CorrectCommission	0.620504	0.542649	1	0	30
16.101013	1.279679	city	9	1	1.229239	1.229239	0	1	0	0	CorrectCommission	0.109418	0.568430	1	0	30
17.380558	1.279410	city	1	1	1.187957	1.187957	0	1	0	0	CorrectCommission	0.098605	0.597043	1	0	30
18.660042	1.279558	mountain	4	0	0.000000	1.234767	1	0	0	0	CorrectOmission	0.137273	0.627965	1	0	30
19.939651	1.279662	city	9	1	1.337736	1.337736	0	1	0	0	CorrectCommission	0.656136	0.659954	1	0	30
21.219311	1.279655	mountain	4	0	0.000000	1.464928	1	0	0	0	CorrectOmission	1.297063	0.691277	1	0	30
22.498859	1.279443	city	4	1	1.410339	1.410339	0	1	0	0	CorrectCommission	1.021987	0.720012	1	0	30
23.778439	1.279716	city	5	1	0.967963	0.967963	0	1	0	0	CorrectCommission	1.207162	0.744361	1	0	30
25.058044	1.279494	city	9	1	1.133754	1.133754	0	1	0	0	CorrectCommission	0.371738	0.762897	1	0	30
26.337547	1.279513	city	5	1	0.964365	0.964365	0	1	0	0	CorrectCommission	1.225292	0.774774	1	0	30
27.617180	1.279754	city	7	1	0.914540	0.914540	0	1	0	0	CorrectCommission	1.476362	0.779757	1	0	30
28.903502	1.292890	city	2	1	1.097026	1.097026	0	1	0	0	CorrectCommission	0.556810	0.778254	1	0	30
30.189732	1.279570	city	4	1	1.298045	1.298045	0	1	0	0	CorrectCommission	0.456133	0.771255	1	0	30
31.469240	1.279446	city	6	1	1.074100	1.074100	0	1	0	0	CorrectCommission	0.672333	0.760187	1	0	30
32.748833	1.279738	city	4	1	1.073524	1.073524	0	1	0	0	CorrectCommission	0.675238	0.746801	1	0	30
34.028439	1.279472	mountain	10	0	0.000000	1.335493	1	0	0	0	CorrectOmission	0.644833	0.733032	1	0	30
35.314598	1.292855	city	9	1	1.472164	1.472164	0	1	0	0	CorrectCommission	1.333527	0.720860	1	0	30
36.600807	1.279559	city	1	1	1.095697	1.095697	0	1	0	0	CorrectCommission	0.563509	0.712225	1	0	30
37.880466	1.279758	city	5	1	1.342033	1.342033	0	1	0	0	CorrectCommission	0.677789	0.708868	1	0	30
39.160061	1.279432	city	9	1	1.147274	1.147274	0	1	0	0	CorrectCommission	0.303606	0.712201	1	0	30
40.439621	1.279689	city	4	1	1.076489	1.076489	0	1	0	0	CorrectCommission	0.660295	0.723176	1	0	30
41.745880	1.332833	city	8	1	1.163024	1.163024	0	1	0	0	CorrectCommission	0.224243	0.742117	1	0	30
43.052135	1.279679	city	5	1	1.023379	1.023379	0	1	0	0	CorrectCommission	0.927921	0.768676	1	0	30
44.331684	1.279412	city	10	1	1.234130	1.234130	0	1	0	0	CorrectCommission	0.134064	0.801771	1	0	30
45.611259	1.279742	city	9	1	1.345781	1.345781	0	1	0	0	CorrectCommission	0.696675	0.839706	0	0	30
46.890926	1.279595	city	3	1	1.300297	1.300297	0	1	0	0	CorrectCommission	0.467482	0.880265	0	0	30
48.170509	1.279569	city	2	1	1.476340	1.476340	0	1	0	0	CorrectCommission	1.354570	0.921000	0	0	30
49.456738	1.292889	city	7	1	1.582390	1.582390	0	1	0	0	CorrectCommission	1.888959	0.959448	0	0	30
50.742981	1.279595	city	6	1	1.403769	1.403769	0	1	0	0	CorrectCommission	0.988880	0.993448	0	0	30
52.022522	1.279485	city	10	1	1.506074	1.506074	0	1	0	0	CorrectCommission	1.504398	1.021356	0	0	30
53.302090	1.279649	city	7	1	1.370482	1.370482	0	1	0	0	CorrectCommission	0.821144	1.042114	0	0	30
54.588367	1.292912	city	10	1	1.297487	1.297487	0	1	0	0	CorrectCommission	0.453323	1.055358	0	0	30
55.881195	1.292744	city	7	1	1.573478	1.573478	0	1	0	0	CorrectCommission	1.844048	1.061327	0	0	30
57.167454	1.279768	city	2	1	1.576512	1.576512	0	1	0	0	CorrectCommission	1.859338	1.060759	0	0	30
57.807339	9.503397	break	0	0	0.000000	1.363703	0	0	0	0	ThoughtProbe	0.786987	1.054760	0	30	30
67.950516	1.279559	city	10	1	1.253271	1.253271	0	1	0	0	CorrectCommission	0.230515	1.044641	0	0	3.170588e+01
69.230156	1.279727	city	6	1	1.563435	1.563435	0	1	0	0	CorrectCommission	1.793443	1.031712	0	0	3.341176e+01
70.516388	1.292736	city	10	1	1.186714	1.186714	0	1	0	0	CorrectCommission	0.104868	1.017118	0	0	3.511765e+01
71.802597	1.279675	city	8	1	1.405040	1.405040	0	1	0	0	CorrectCommission	0.995284	1.001860	0	0	3.682353e+01
73.088921	1.292979	city	3	1	1.465417	1.465417	0	1	0	0	CorrectCommission	1.299527	0.986639	0	0	3.852941e+01
74.381798	1.292775	city	10	1	1.434044	1.434044	0	1	0	0	CorrectCommission	1.141438	0.971902	0	0	4.023529e+01
75.687965	1.319559	city	6	1	1.489172	1.489172	0	1	0	0	CorrectCommission	1.419229	0.957833	0	0	4.194118e+01
76.987602	1.279714	mountain	6	0	0.000000	1.444828	1	0	0	0	CorrectOmission	1.195776	0.944326	0	0	4.364706e+01
78.267258	1.279601	city	5	1	1.336647	1.336647	0	1	0	0	CorrectCommission	0.650649	0.931026	0	0	4.535294e+01
79.546837	1.279557	city	1	1	1.200266	1.200266	0	1	0	0	CorrectCommission	0.036582	0.917289	0	0	4.705882e+01
80.826416	1.279593	city	9	1	1.148287	1.148287	0	1	0	0	CorrectCommission	0.298501	0.902298	0	0	4.876471e+01
82.106003	1.279590	city	2	1	1.337981	1.337981	0	1	0	0	CorrectCommission	0.657374	0.885109	0	0	5.047059e+01
83.385506	1.279406	city	10	1	1.538456	1.538456	0	1	0	0	CorrectCommission	1.667574	0.864854	0	0	5.217647e+01
84.678406	1.306407	city	9	1	1.676989	1.676989	0	1	0	0	CorrectCommission	2.365645	0.840931	0	0	5.388235e+01
85.978058	1.292891	city	5	0	0.000000	1.348813	0	0	0	1	OmissionError	0.711957	0.813192	0	0	5.558824e+01
87.264290	1.279578	city	1	1	1.027787	1.027787	0	1	0	0	CorrectCommission	0.905710	0.782161	1	0	5.729412e+01
88.550705	1.293246	city	5	1	1.187765	1.187765	0	1	0	0	CorrectCommission	0.099574	0.748960	1	0	59
89.850204	1.305759	city	9	1	1.099073	1.099073	0	1	0	0	CorrectCommission	0.546494	0.715350	1	0	6.070588e+01
91.142944	1.279719	city	6	1	1.129772	1.129772	0	1	0	0	CorrectCommission	0.391803	0.683521	1	0	6.241176e+01
92.422592	1.279580	city	1	1	0.974401	0.974401	0	1	0	0	CorrectCommission	1.174720	0.655880	1	0	6.411765e+01
93.702202	1.279632	city	8	1	1.032306	1.032306	0	1	0	0	CorrectCommission	0.882934	0.634799	1	0	6.582353e+01
94.981720	1.279411	mountain	1	0	0.000000	1.190736	1	0	0	0	CorrectOmission	0.084602	0.622434	1	0	6.752941e+01
96.261269	1.279674	city	7	1	1.294712	1.294712	0	1	0	0	CorrectCommission	0.439337	0.620434	1	0	6.923529e+01
97.547485	1.292763	city	10	1	1.189257	1.189257	0	1	0	0	CorrectCommission	0.092056	0.629729	1	0	7.094118e+01
98.833748	1.279764	city	9	1	1.241064	1.241064	0	1	0	0	CorrectCommission	0.169003	0.650517	1	0	7.264706e+01
100.113419	1.279571	city	8	1	1.231495	1.231495	0	1	0	0	CorrectCommission	0.120783	0.682161	1	0	7.435294e+01
101.399635	1.292865	city	1	1	1.269214	1.269214	0	1	0	0	CorrectCommission	0.310852	0.723303	1	0	7.605882e+01
102.692535	1.292933	city	4	1	1.469953	1.469953	0	1	0	0	CorrectCommission	1.322383	0.771992	1	0	7.776471e+01
103.978790	1.279578	city	10	1	1.360750	1.360750	0	1	0	0	CorrectCommission	0.772103	0.825854	0	0	7.947059e+01
105.258377	1.279602	city	3	1	1.560566	1.560566	0	1	0	0	CorrectCommission	1.778984	0.882339	0	0	8.117647e+01
106.537956	1.279561	city	5	1	1.468925	1.468925	0	1	0	0	CorrectCommission	1.317205	0.938795	0	0	8.288235e+01
107.817528	1.279576	city	10	1	1.327056	1.327056	0	1	0	0	CorrectCommission	0.602322	0.992637	0	0	8.458824e+01
109.117035	1.319433	city	9	1	1.388065	1.388065	0	1	0	0	CorrectCommission	0.909747	1.041369	0	0	8.629412e+01
109.776749	11.036522	break	0	0	0.000000	1.143540	0	0	0	0	ThoughtProbe	0.322422	1.082608	0	88	88
121.452965	1.279397	city	10	1	1.024587	1.024587	0	1	0	0	CorrectCommission	0.921834	1.114256	0	0	8.676087e+01
122.732536	1.279743	city	1	1	1.462308	1.462308	0	1	0	0	CorrectCommission	1.283858	1.134540	0	0	8.552174e+01
124.012123	1.279431	mountain	6	0	0.000000	1.675965	1	0	0	0	CorrectOmission	2.360483	1.142313	0	0	8.428261e+01
125.291710	1.279746	mountain	8	0	0.000000	1.671304	1	0	0	0	CorrectOmission	2.336996	1.137192	0	0	8.304348e+01
126.571281	1.279397	city	9	1	1.454070	1.454070	0	1	0	0	CorrectCommission	1.242351	1.119762	0	0	8.180435e+01
127.850853	1.279745	city	1	1	1.030011	1.030011	0	1	0	0	CorrectCommission	0.894500	1.091631	0	0	8.056522e+01
129.131638	1.281814	city	7	1	1.621328	1.621328	0	1	0	0	CorrectCommission	2.085168	1.055293	0	0	7.932609e+01
130.417877	1.290669	city	8	1	1.154326	1.154326	0	1	0	0	CorrectCommission	0.268072	1.013916	0	0	7.808696e+01
131.702927	1.279443	mountain	5	0	0.000000	1.251866	1	0	0	0	CorrectOmission	0.223435	0.971092	0	0	7.684783e+01
132.982513	1.279719	city	9	1	1.402261	1.402261	0	1	0	0	CorrectCommission	0.981279	0.930386	0	0	7.560870e+01
134.295486	1.346222	city	5	1	1.093823	1.093823	0	1	0	0	CorrectCommission	0.572951	0.894951	0	0	7.436957e+01
135.608261	1.279348	city	10	1	0.986816	0.986816	0	1	0	0	CorrectCommission	1.112160	0.867274	0	0	7.313043e+01
136.914459	1.333040	city	6	1	1.309784	1.309784	0	1	0	0	CorrectCommission	0.515285	0.848916	0	0	7.189130e+01
138.234055	1.306158	city	9	1	1.165321	1.165321	0	1	0	0	CorrectCommission	0.212671	0.840418	0	0	7.065217e+01
139.533691	1.293097	city	4	1	1.049278	1.049278	0	1	0	0	CorrectCommission	0.797415	0.841296	0	0	6.941304e+01
140.819962	1.279447	city	5	1	1.081313	1.081313	0	1	0	0	CorrectCommission	0.635989	0.850093	0	0	6.817391e+01
142.099533	1.279685	city	2	1	1.036116	1.036116	0	1	0	0	CorrectCommission	0.863736	0.864643	0	0	6.693478e+01
143.379166	1.279584	city	5	1	1.015780	1.015780	0	1	0	0	CorrectCommission	0.966212	0.882299	0	0	6.569565e+01
144.658691	1.279460	city	9	1	1.131510	1.131510	0	1	0	0	CorrectCommission	0.383041	0.900220	0	0	6.445652e+01
145.938263	1.279691	city	7	1	1.622914	1.622914	0	1	0	0	CorrectCommission	2.093159	0.915715	0	0	6.321739e+01
147.217865	1.279518	city	5	1	1.360910	1.360910	0	1	0	0	CorrectCommission	0.772913	0.926421	0	0	6.197826e+01
148.504044	1.292855	mountain	6	0	0.000000	1.379362	1	0	0	0	CorrectOmission	0.865893	0.930650	0	0	6.073913e+01
149.796936	1.292931	city	2	1	1.465012	1.465012	0	1	0	0	CorrectCommission	1.297486	0.927419	0	0	5.950000e+01
151.083252	1.279674	city	5	1	1.404603	1.404603	0	1	0	0	CorrectCommission	0.993081	0.916530	0	0	5.826087e+01
152.362869	1.279581	city	7	1	1.571194	1.571194	0	1	0	0	CorrectCommission	1.832542	0.898531	0	0	5.702174e+01
153.642380	1.279415	city	5	1	1.239160	1.239160	0	1	0	0	CorrectCommission	0.159411	0.874565	0	0	5.578261e+01
154.921875	1.279578	city	7	1	1.460548	1.460548	0	1	0	0	CorrectCommission	1.274992	0.846261	0	0	5.454348e+01
156.221527	1.319751	city	10	1	1.043209	1.043209	0	1	0	0	CorrectCommission	0.827995	0.815396	0	0	5.330435e+01
157.521179	1.279554	city	9	1	1.342780	1.342780	0	1	0	0	CorrectCommission	0.681552	0.783731	1	0	5.206522e+01
158.800751	1.279586	city	2	1	1.241090	1.241090	0	1	0	0	CorrectCommission	0.169134	0.752833	1	0	5.082609e+01
160.093582	1.306065	city	8	1	1.209788	1.209788	0	1	0	0	CorrectCommission	0.011402	0.723934	1	0	4.958696e+01
161.393143	1.293054	city	5	1	0.969807	0.969807	0	1	0	0	CorrectCommission	1.197871	0.697867	1	0	4.834783e+01
162.692795	1.306247	city	1	1	1.065823	1.065823	0	1	0	0	CorrectCommission	0.714042	0.675057	1	0	4.710870e+01
163.985718	1.279610	city	10	1	0.976382	0.976382	0	1	0	0	CorrectCommission	1.164738	0.655650	1	0	4.586957e+01
165.265289	1.279539	city	9	1	1.141061	1.141061	0	1	0	0	CorrectCommission	0.334915	0.639550	1	0	4.463043e+01
166.544830	1.279529	city	10	1	1.182602	1.182602	0	1	0	0	CorrectCommission	0.125590	0.626565	1	0	4.339130e+01
167.824356	1.279514	city	2	1	1.495583	1.495583	0	1	0	0	CorrectCommission	1.451533	0.616435	1	0	4.215217e+01
169.117249	1.306287	city	6	1	1.245500	1.245500	0	1	0	0	CorrectCommission	0.191354	0.608840	1	0	4.091304e+01
170.416901	1.293014	city	8	1	1.092482	1.092482	0	1	0	0	CorrectCommission	0.579707	0.603492	1	0	3.967391e+01
171.723145	1.319480	city	3	1	1.162276	1.162276	0	1	0	0	CorrectCommission	0.228010	0.600058	1	0	3.843478e+01
173.029297	1.292808	city	6	1	1.267232	1.267232	0	1	0	0	CorrectCommission	0.300866	0.598244	1	0	3.719565e+01
174.315567	1.279737	city	7	1	1.081497	1.081497	0	1	0	0	CorrectCommission	0.635061	0.597736	1	0	3.595652e+01
175.635208	1.359558	city	5	1	1.057292	1.057292	0	1	0	0	CorrectCommission	0.757030	0.598316	1	0	3.471739e+01
176.954712	1.279452	city	8	1	1.030002	1.030002	0	1	0	0	CorrectCommission	0.894546	0.599861	1	0	3.347826e+01
178.234314	1.279727	city	5	1	0.977918	0.977918	0	1	0	0	CorrectCommission	1.157000	0.602351	1	0	3.223913e+01
178.874176	9.263510	break	0	0	0.000000	1.053104	0	0	0	0	ThoughtProbe	0.778136	0.605830	1	31	31
188.777481	1.279587	mountain	9	0	0.000000	1.170762	1	0	0	0	CorrectOmission	0.185250	0.610347	1	0	3.272500e+01
190.057007	1.279495	city	4	1	1.246096	1.246096	0	1	0	0	CorrectCommission	0.194362	0.615896	1	0	3.445000e+01
191.336563	1.279605	city	2	1	1.194309	1.194309	0	1	0	0	CorrectCommission	0.066597	0.622279	1	0	3.617500e+01
192.622849	1.292974	city	3	1	1.263426	1.263426	0	1	0	0	CorrectCommission	0.281686	0.629094	1	0	3.790000e+01
193.909180	1.279681	city	8	1	0.913784	0.913784	0	1	0	0	CorrectCommission	1.480175	0.635763	1	0	3.962500e+01
195.188797	1.279549	city	2	1	1.087902	1.087902	0	1	0	0	CorrectCommission	0.602786	0.641565	1	0	4.135000e+01
196.468369	1.279602	city	3	1	1.402357	1.402357	0	1	0	0	CorrectCommission	0.981762	0.645819	1	0	4.307500e+01
197.747955	1.279554	city	5	1	1.138442	1.138442	0	1	0	0	CorrectCommission	0.348113	0.647929	1	0	4.480000e+01
199.027527	1.279587	mountain	6	0	0.000000	1.322845	1	0	0	0	CorrectOmission	0.581101	0.647573	1	0	4.652500e+01
200.313782	1.292927	city	6	1	1.534937	1.534937	0	1	0	0	CorrectCommission	1.649840	0.644681	1	0	4.825000e+01
201.599976	1.279453	city	5	1	1.354089	1.354089	0	1	0	0	CorrectCommission	0.738539	0.639436	1	0	4.997500e+01
202.886124	1.292848	city	8	1	1.156472	1.156472	0	1	0	0	CorrectCommission	0.257260	0.632253	1	0	5.170000e+01
204.172409	1.279745	city	1	1	1.245933	1.245933	0	1	0	0	CorrectCommission	0.193538	0.623602	1	0	5.342500e+01
205.452087	1.279586	city	3	1	1.306279	1.306279	0	1	0	0	CorrectCommission	0.497622	0.613935	1	0	5.515000e+01
206.744980	1.306216	city	9	1	1.189592	1.189592	0	1	0	0	CorrectCommission	0.090364	0.603583	1	0	5.687500e+01
208.037903	1.279631	mountain	4	0	0.000000	1.361632	1	0	0	0	CorrectOmission	0.776550	0.592769	1	0	5.860000e+01
209.317490	1.279532	city	7	1	1.416278	1.416278	0	1	0	0	CorrectCommission	1.051913	0.581610	1	0	6.032500e+01
210.617050	1.319592	city	1	1	0.947412	0.947412	0	1	0	0	CorrectCommission	1.310722	0.570217	1	0	6.205000e+01
211.916534	1.279391	city	2	1	1.253195	1.253195	0	1	0	0	CorrectCommission	0.230134	0.558758	1	0	6.377500e+01
213.196106	1.279732	city	1	1	1.313757	1.313757	0	1	0	0	CorrectCommission	0.535308	0.547592	1	0	6.550000e+01
214.509094	1.346240	city	10	1	1.250129	1.250129	0	1	0	0	CorrectCommission	0.214682	0.537246	1	0	6.722500e+01
215.821976	1.279531	city	9	1	1.141318	1.141318	0	1	0	0	CorrectCommission	0.333618	0.528476	1	0	6.895000e+01
217.101562	1.279642	city	2	1	1.188697	1.188697	0	1	0	0	CorrectCommission	0.094874	0.522215	1	0	7.067500e+01
218.381180	1.279587	city	3	1	1.450759	1.450759	0	1	0	0	CorrectCommission	1.225662	0.519531	1	0	7.240000e+01
219.674011	1.306097	city	7	1	1.374412	1.374412	0	1	0	0	CorrectCommission	0.840949	0.521501	1	0	7.412500e+01
220.966843	1.279555	city	3	1	1.185687	1.185687	0	1	0	0	CorrectCommission	0.110045	0.529117	1	0	7.585000e+01
222.246475	1.279713	city	8	1	1.197056	1.197056	0	1	0	0	CorrectCommission	0.052754	0.543140	1	0	7.757500e+01
223.526123	1.279577	city	9	1	1.350812	1.350812	0	1	0	0	CorrectCommission	0.722025	0.563944	1	0	7.930000e+01
224.805634	1.279443	city	4	1	1.298924	1.298924	0	1	0	0	CorrectCommission	0.460563	0.591385	1	0	8.102500e+01
226.091888	1.293069	city	7	1	1.205845	1.205845	0	1	0	0	CorrectCommission	0.008464	0.624772	1	0	8.275000e+01
227.391541	1.306235	city	9	1	1.168940	1.168940	0	1	0	0	CorrectCommission	0.194431	0.662842	1	0	8.447500e+01
228.711060	1.332806	city	5	1	0.992505	0.992505	0	1	0	0	CorrectCommission	1.083494	0.703800	1	0	8.620000e+01
230.017303	1.279670	city	4	1	1.018602	1.018602	0	1	0	0	CorrectCommission	0.951990	0.745507	1	0	8.792500e+01
231.296921	1.279579	city	6	1	1.039192	1.039192	0	1	0	0	CorrectCommission	0.848239	0.785715	1	0	8.965000e+01
232.576492	1.279556	city	1	1	1.089959	1.089959	0	1	0	0	CorrectCommission	0.592420	0.822278	0	0	9.137500e+01
233.869385	1.306231	city	2	1	0.952554	0.952554	0	1	0	0	CorrectCommission	1.284807	0.853378	0	0	9.310000e+01
235.162216	1.279424	city	5	1	1.550198	1.550198	0	1	0	0	CorrectCommission	1.726739	0.877682	0	0	9.482500e+01
236.441803	1.279763	city	1	1	1.354677	1.354677	0	1	0	0	CorrectCommission	0.741503	0.894430	0	0	9.655000e+01
237.728134	1.292904	city	10	1	1.438833	1.438833	0	1	0	0	CorrectCommission	1.165569	0.903505	0	0	9.827500e+01
242.066635	7.384077	break	0	0	0.000000	1.424557	0	0	0	0	ThoughtProbe	1.093631	0.905262	0	100	100
246.398529	1.279734	city	2	1	1.350303	1.350303	0	1	0	0	CorrectCommission	0.719465	0.900470	0	0	9.832353e+01
247.684769	1.292735	city	1	1	1.254527	1.254527	0	1	0	0	CorrectCommission	0.236845	0.890157	0	0	9.664706e+01
248.977631	1.292985	mountain	2	0	0.000000	1.414732	1	0	0	0	CorrectOmission	1.044124	0.875482	0	0	9.497059e+01
250.263947	1.279665	city	1	1	1.526423	1.526423	0	1	0	0	CorrectCommission	1.606939	0.857609	0	0	9.329412e+01
251.543503	1.279441	city	2	1	1.285106	1.285106	0	1	0	0	CorrectCommission	0.390932	0.837707	0	0	9.161765e+01
252.823013	1.279580	city	9	1	1.451347	1.451347	0	1	0	0	CorrectCommission	1.228629	0.816933	0	0	8.994118e+01
254.102615	1.279606	city	7	1	1.284379	1.284379	0	1	0	0	CorrectCommission	0.387270	0.796384	1	0	8.826471e+01
255.382278	1.279725	city	4	1	1.073539	1.073539	0	1	0	0	CorrectCommission	0.675161	0.777164	1	0	8.658824e+01
256.668518	1.292736	city	10	1	1.042774	1.042774	0	1	0	0	CorrectCommission	0.830189	0.760313	1	0	8.491176e+01
257.961334	1.292903	city	2	1	1.427750	1.427750	0	1	0	0	CorrectCommission	1.109723	0.746750	1	0	8.323529e+01
259.247559	1.279569	city	4	1	1.366249	1.366249	0	1	0	0	CorrectCommission	0.799815	0.737229	1	0	8.155882e+01
260.527130	1.279588	city	9	1	1.139181	1.139181	0	1	0	0	CorrectCommission	0.344390	0.732210	1	0	7.988235e+01
261.806732	1.279582	city	8	1	1.315694	1.315694	0	1	0	0	CorrectCommission	0.545069	0.731794	1	0	7.820588e+01
263.106384	1.319739	city	5	1	1.186259	1.186259	0	1	0	0	CorrectCommission	0.107159	0.735618	1	0	7.652941e+01
264.406036	1.279550	city	2	1	1.083601	1.083601	0	1	0	0	CorrectCommission	0.624460	0.742926	1	0	7.485294e+01
265.692261	1.292916	city	9	1	1.090616	1.090616	0	1	0	0	CorrectCommission	0.589112	0.752635	1	0	7.317647e+01
266.998505	1.319576	city	5	1	1.163417	1.163417	0	1	0	0	CorrectCommission	0.222261	0.763517	1	0	7.150000e+01
268.298065	1.279552	city	1	1	1.637924	1.637924	0	1	0	0	CorrectCommission	2.168796	0.774394	1	0	6.982353e+01
269.604309	1.332897	city	5	1	1.504177	1.504177	0	1	0	0	CorrectCommission	1.494838	0.784251	1	0	6.814706e+01
270.923889	1.306257	city	2	1	1.316643	1.316643	0	1	0	0	CorrectCommission	0.549847	0.792466	1	0	6.647059e+01
272.216797	1.279579	city	7	1	1.394327	1.394327	0	1	0	0	CorrectCommission	0.941301	0.798784	1	0	6.479412e+01
273.509705	1.306216	city	10	1	1.124489	1.124489	0	1	0	0	CorrectCommission	0.418421	0.803246	1	0	6.311765e+01
274.809265	1.292929	city	7	1	1.269463	1.269463	0	1	0	0	CorrectCommission	0.312107	0.806105	0	0	6.144118e+01
276.102112	1.292761	mountain	5	0	0.000000	1.362809	1	0	0	0	CorrectOmission	0.782478	0.807660	0	0	5.976471e+01
277.388275	1.279565	city	10	1	1.401370	1.401370	0	1	0	0	CorrectCommission	0.976792	0.808123	0	0	5.808824e+01
278.674500	1.292915	city	2	1	1.381993	1.381993	0	1	0	0	CorrectCommission	0.879148	0.807574	0	0	5.641176e+01
279.980835	1.319711	city	7	1	1.329869	1.329869	0	1	0	0	CorrectCommission	0.616494	0.805992	0	0	5.473529e+01
281.280396	1.279428	city	1	1	1.039409	1.039409	0	1	0	0	CorrectCommission	0.847145	0.803283	1	0	5.305882e+01
282.559906	1.279576	city	9	1	1.315219	1.315219	0	1	0	0	CorrectCommission	0.542673	0.799393	1	0	5.138235e+01
283.859558	1.319725	city	5	1	0.851801	0.851801	0	1	0	0	CorrectCommission	1.792510	0.794405	1	0	4.970588e+01
285.159180	1.279549	city	10	1	1.036468	1.036468	0	1	0	0	CorrectCommission	0.861962	0.788551	1	0	4.802941e+01
286.438751	1.279614	city	7	1	1.451852	1.451852	0	1	0	0	CorrectCommission	1.231170	0.782280	1	0	4.635294e+01
287.738342	1.319568	city	6	1	1.164182	1.164182	0	1	0	0	CorrectCommission	0.218406	0.776124	1	0	4.467647e+01
292.363495	7.930682	break	0	0	0.000000	1.188877	0	0	0	0	ThoughtProbe	0.093968	0.770644	1	43	43
296.968628	1.279599	mountain	6	0	0.000000	1.306304	1	0	0	0	CorrectOmission	0.497748	0.766302	1	0	4.302500e+01
298.274780	1.332732	city	9	1	1.296830	1.296830	0	1	0	0	CorrectCommission	0.450010	0.763394	1	0	4.305000e+01
299.581024	1.279767	city	8	1	0.940824	0.940824	0	1	0	0	CorrectCommission	1.343916	0.762054	1	0	4.307500e+01
300.887299	1.332785	city	5	1	0.951940	0.951940	0	1	0	0	CorrectCommission	1.287905	0.762299	1	0	4.310000e+01
302.193542	1.279685	city	6	1	1.305738	1.305738	0	1	0	0	CorrectCommission	0.494899	0.764159	1	0	4.312500e+01
303.499756	1.332739	city	3	1	1.129899	1.129899	0	1	0	0	CorrectCommission	0.391163	0.767721	1	0	4.315000e+01
304.805969	1.279690	city	6	1	0.964304	0.964304	0	1	0	0	CorrectCommission	1.225599	0.773245	1	0	4.317500e+01
306.085541	1.279461	city	1	1	1.030771	1.030771	0	1	0	0	CorrectCommission	0.890672	0.781172	1	0	4.320000e+01
307.385040	1.319543	city	4	1	1.116921	1.116921	0	1	0	0	CorrectCommission	0.456556	0.792094	1	0	4.322500e+01
308.691315	1.292973	city	7	1	1.082589	1.082589	0	1	0	0	CorrectCommission	0.629558	0.806673	0	0	4.325000e+01
309.984314	1.293010	city	1	1	1.030752	1.030752	0	1	0	0	CorrectCommission	0.890765	0.825485	0	0	4.327500e+01
311.270599	1.279568	mountain	7	0	0.000000	1.007316	1	0	0	0	CorrectOmission	1.008864	0.848878	0	0	4.330000e+01
312.550171	1.279586	city	1	1	1.076578	1.076578	0	1	0	0	CorrectCommission	0.659848	0.876855	0	0	4.332500e+01
313.829742	1.279576	city	4	1	1.302839	1.302839	0	1	0	0	CorrectCommission	0.480291	0.908993	0	0	4.335000e+01
315.115936	1.292775	city	7	1	1.132777	1.132777	0	1	0	0	CorrectCommission	0.376658	0.944445	0	0	4.337500e+01
316.408844	1.293066	city	3	1	1.083187	1.083187	0	1	0	0	CorrectCommission	0.626544	0.982016	0	0	4.340000e+01
317.708435	1.306125	city	4	1	0.889524	0.889524	0	1	0	0	CorrectCommission	1.602419	1.020315	0	0	4.342500e+01
319.001343	1.279695	city	9	1	0.879777	0.879777	0	1	0	0	CorrectCommission	1.651534	1.057921	0	0	4.345000e+01
320.280975	1.279553	city	7	1	0.978497	0.978497	0	1	0	0	CorrectCommission	1.154082	1.093617	0	0	4.347500e+01
321.567200	1.292913	city	5	1	0.856740	0.856740	0	1	0	0	CorrectCommission	1.767621	1.126496	0	0	4.350000e+01
322.853455	1.279575	mountain	1	0	0.000000	0.986896	1	0	0	0	CorrectOmission	1.111757	1.156013	0	0	4.352500e+01
324.133026	1.279584	city	8	1	1.099898	1.099898	0	1	0	0	CorrectCommission	0.542335	1.181991	0	0	4.355000e+01
325.419250	1.292835	city	3	1	0.926678	0.926678	0	1	0	0	CorrectCommission	1.415202	1.204492	0	0	4.357500e+01
326.705444	1.279579	city	6	1	0.917595	0.917595	0	1	0	0	CorrectCommission	1.460970	1.223642	0	0	4.360000e+01
327.984985	1.279488	city	4	1	1.099408	1.099408	0	1	0	0	CorrectCommission	0.544809	1.239514	0	0	4.362500e+01
329.264526	1.279601	city	9	1	0.929664	0.929664	0	1	0	0	CorrectCommission	1.400152	1.252051	0	0	4.365000e+01
330.544128	1.279610	city	6	1	0.881601	0.881601	0	1	0	0	CorrectCommission	1.642346	1.260949	0	0	4.367500e+01
331.823761	1.279685	city	8	1	0.978992	0.978992	0	1	0	0	CorrectCommission	1.151586	1.265717	0	0	4.370000e+01
333.136688	1.346159	city	3	1	0.949554	0.949554	0	1	0	0	CorrectCommission	1.299928	1.265744	0	0	4.372500e+01
334.456207	1.292839	city	10	1	0.881970	0.881970	0	1	0	0	CorrectCommission	1.640484	1.260389	0	0	4.375000e+01
335.755798	1.306347	city	8	1	0.895790	0.895790	0	1	0	0	CorrectCommission	1.570846	1.249086	0	0	4.377500e+01
337.055359	1.292770	city	3	1	0.883164	0.883164	0	1	0	0	CorrectCommission	1.634469	1.231451	0	0	4.380000e+01
338.341614	1.279751	city	5	1	1.071030	1.071030	0	1	0	0	CorrectCommission	0.687805	1.207361	0	0	4.382500e+01
339.634521	1.306067	city	9	1	1.059524	1.059524	0	1	0	0	CorrectCommission	0.745785	1.177012	0	0	4.385000e+01
340.934082	1.293065	city	3	1	0.940378	0.940378	0	1	0	0	CorrectCommission	1.346167	1.140926	0	0	4.387500e+01
342.220398	1.279583	city	9	1	0.910412	0.910412	0	1	0	0	CorrectCommission	1.497163	1.099933	0	0	4.390000e+01
343.506622	1.292837	city	2	1	0.846482	0.846482	0	1	0	0	CorrectCommission	1.819312	1.055189	0	0	4.392500e+01
344.799530	1.292994	city	4	1	0.940438	0.940438	0	1	0	0	CorrectCommission	1.345862	1.008093	0	0	4.395000e+01
346.085815	1.279589	city	9	1	1.097411	1.097411	0	1	0	0	CorrectCommission	0.554869	0.960182	0	0	4.397500e+01
349.497955	5.544659	break	0	0	0.000000	1.156454	0	0	0	0	ThoughtProbe	0.257348	0.913046	0	44	44
352.916718	1.292906	city	8	1	1.122500	1.122500	0	1	0	0	CorrectCommission	0.428447	0.868239	0	0	4.484783e+01
354.229736	1.333075	city	10	1	1.000479	1.000479	0	1	0	0	CorrectCommission	1.043312	0.827194	0	0	4.569565e+01
355.542694	1.292886	city	5	1	1.071624	1.071624	0	1	0	0	CorrectCommission	0.684813	0.791238	1	0	4.654348e+01
356.828857	1.279443	mountain	5	0	0.000000	1.296603	1	0	0	0	CorrectOmission	0.448869	0.761611	1	0	4.739130e+01
358.108459	1.279721	city	5	1	1.461303	1.461303	0	1	0	0	CorrectCommission	1.278794	0.739462	1	0	4.823913e+01
359.394684	1.292767	city	9	1	1.351605	1.351605	0	1	0	0	CorrectCommission	0.726025	0.725837	1	0	4.908696e+01
360.680939	1.279710	mountain	9	0	0.000000	1.146522	1	0	0	0	CorrectOmission	0.307397	0.721692	1	0	4.993478e+01
361.960571	1.279570	city	5	1	1.089601	1.089601	0	1	0	0	CorrectCommission	0.594223	0.727732	1	0	5.078261e+01
363.240143	1.279591	city	1	1	1.424391	1.424391	0	1	0	0	CorrectCommission	1.092794	0.744247	1	0	5.163043e+01
364.566406	1.372907	city	2	1	1.167770	1.167770	0	1	0	0	CorrectCommission	0.200328	0.770957	1	0	5.247826e+01
365.892578	1.279446	city	3	1	1.183320	1.183320	0	1	0	0	CorrectCommission	0.121972	0.806848	0	0	5.332609e+01
367.172058	1.279542	city	9	1	1.078485	1.078485	0	1	0	0	CorrectCommission	0.650238	0.850053	0	0	5.417391e+01
368.451721	1.279753	city	1	1	1.096377	1.096377	0	1	0	0	CorrectCommission	0.560078	0.897917	0	0	5.502174e+01
369.731384	1.279552	city	7	1	1.364442	1.364442	0	1	0	0	CorrectCommission	0.790708	0.947205	0	0	5.586957e+01
371.057526	1.372756	city	10	1	1.171207	1.171207	0	1	0	0	CorrectCommission	0.183007	0.994430	0	0	5.671739e+01
372.397034	1.306286	city	8	1	0.848350	0.848350	0	1	0	0	CorrectCommission	1.809895	1.036286	0	0	5.756522e+01
373.717346	1.334313	city	10	1	0.628117	0.628117	0	1	0	0	CorrectCommission	2.919658	1.069991	0	0	5.841304e+01
375.036957	1.304922	mountain	8	1	0.779101	0.779101	0	0	1	0	CommissionError	2.158845	1.093686	0	0	5.926087e+01
376.329193	1.279553	city	10	1	1.465268	1.465268	0	1	0	0	CorrectCommission	1.298773	1.106652	0	0	6.010870e+01
377.615356	1.292760	city	8	1	1.350976	1.350976	0	1	0	0	CorrectCommission	0.722856	1.109237	0	0	6.095652e+01
378.914856	1.306230	city	6	1	1.153877	1.153877	0	1	0	0	CorrectCommission	0.270334	1.102672	0	0	6.180435e+01
380.214508	1.293102	city	9	1	0.993653	0.993653	0	1	0	0	CorrectCommission	1.077711	1.088780	0	0	6.265217e+01
381.507507	1.292870	city	4	1	1.014346	1.014346	0	1	0	0	CorrectCommission	0.973437	1.069542	0	0	6.350000e+01
382.793671	1.279450	city	10	1	0.984124	0.984124	0	1	0	0	CorrectCommission	1.125728	1.046831	0	0	6.434783e+01
384.073242	1.279707	city	1	1	1.471431	1.471431	0	1	0	0	CorrectCommission	1.329831	1.022168	0	0	6.519565e+01
385.372803	1.319400	city	10	1	1.369606	1.369606	0	1	0	0	CorrectCommission	0.816733	0.996610	0	0	6.604348e+01
386.679047	1.293090	city	1	1	1.064727	1.064727	0	1	0	0	CorrectCommission	0.719564	0.970724	0	0	6.689130e+01
387.965363	1.279581	city	9	1	1.032612	1.032612	0	1	0	0	CorrectCommission	0.881396	0.944691	0	0	6.773913e+01
389.264923	1.319543	city	5	1	0.888778	0.888778	0	1	0	0	CorrectCommission	1.606177	0.918415	0	0	6.858696e+01
390.571106	1.292787	city	6	1	1.409720	1.409720	0	1	0	0	CorrectCommission	1.018868	0.891663	0	0	6.943478e+01
391.857269	1.279553	city	2	1	1.141915	1.141915	0	1	0	0	CorrectCommission	0.330612	0.864207	0	0	7.028261e+01
393.143585	1.293062	city	7	1	1.068146	1.068146	0	1	0	0	CorrectCommission	0.702339	0.835934	0	0	7.113043e+01
394.429901	1.279581	mountain	1	0	0.000000	1.023570	1	0	0	0	CorrectOmission	0.926959	0.806892	0	0	7.197826e+01
395.716064	1.292749	city	9	1	0.996207	0.996207	0	1	0	0	CorrectCommission	1.064841	0.777318	1	0	7.282609e+01
397.008972	1.293083	city	10	1	0.974077	0.974077	0	1	0	0	CorrectCommission	1.176356	0.747682	1	0	7.367391e+01
398.295319	1.279584	city	8	1	1.132180	1.132180	0	1	0	0	CorrectCommission	0.379665	0.718625	1	0	7.452174e+01
399.581512	1.292809	city	1	1	1.220267	1.220267	0	1	0	0	CorrectCommission	0.064207	0.690999	1	0	7.536957e+01
400.867676	1.279518	city	10	1	1.417944	1.417944	0	1	0	0	CorrectCommission	1.060308	0.665772	1	0	7.621739e+01
402.160614	1.306375	city	9	1	1.311737	1.311737	0	1	0	0	CorrectCommission	0.525128	0.643944	1	0	7.706522e+01
403.480255	1.332909	city	1	1	1.247047	1.247047	0	1	0	0	CorrectCommission	0.199150	0.626589	1	0	7.791304e+01
404.786499	1.279585	city	9	1	1.527935	1.527935	0	1	0	0	CorrectCommission	1.614559	0.614703	1	0	7.876087e+01
406.066101	1.279580	city	1	1	1.178746	1.178746	0	1	0	0	CorrectCommission	0.145019	0.609095	1	0	7.960870e+01
407.365570	1.319397	city	7	1	1.216971	1.216971	0	1	0	0	CorrectCommission	0.047596	0.610355	1	0	8.045652e+01
408.665161	1.279747	city	6	1	1.101944	1.101944	0	1	0	0	CorrectCommission	0.532030	0.618617	1	0	8.130435e+01
409.944794	1.279551	city	8	1	1.054222	1.054222	0	1	0	0	CorrectCommission	0.772503	0.633579	1	0	8.215217e+01
414.050049	6.930911	break	0	0	0.000000	1.212757	0	0	0	0	ThoughtProbe	0.026363	0.654453	1	83	83
418.155365	1.279727	city	2	1	1.319506	1.319506	0	1	0	0	CorrectCommission	0.564275	0.680067	1	0	8.329412e+01
419.448273	1.306096	city	9	1	1.116424	1.116424	0	1	0	0	CorrectCommission	0.459060	0.708931	1	0	8.358824e+01
420.747833	1.293066	city	8	1	1.035106	1.035106	0	1	0	0	CorrectCommission	0.868826	0.739471	1	0	8.388235e+01
422.034088	1.279425	city	7	1	1.028890	1.028890	0	1	0	0	CorrectCommission	0.900151	0.770228	1	0	8.417647e+01
423.320343	1.293061	city	4	1	1.005159	1.005159	0	1	0	0	CorrectCommission	1.019730	0.800025	1	0	8.447059e+01
424.619995	1.306244	city	7	1	0.865225	0.865225	0	1	0	0	CorrectCommission	1.724865	0.828072	0	0	8.476471e+01
425.926178	1.306161	mountain	5	1	0.994119	0.994119	0	0	1	0	CommissionError	1.075361	0.853971	0	0	8.505882e+01
427.239044	1.319525	city	1	1	1.504458	1.504458	0	1	0	0	CorrectCommission	1.496257	0.877600	0	0	8.535294e+01
428.565247	1.332910	city	10	1	1.205515	1.205515	0	1	0	0	CorrectCommission	0.010132	0.898906	0	0	8.564706e+01
429.871552	1.279682	mountain	6	0	0.000000	1.246211	1	0	0	0	CorrectOmission	0.194938	0.917733	0	0	8.594118e+01
431.157837	1.292892	city	7	1	1.340831	1.340831	0	1	0	0	CorrectCommission	0.671735	0.933632	0	0	8.623529e+01
432.497314	1.386040	city	9	1	1.203661	1.203661	0	1	0	0	CorrectCommission	0.019474	0.945837	0	0	8.652941e+01
433.843506	1.306386	city	6	1	0.941438	0.941438	0	1	0	0	CorrectCommission	1.340821	0.953418	0	0	8.682353e+01
435.143188	1.292943	city	7	1	0.962375	0.962375	0	1	0	0	CorrectCommission	1.235322	0.955436	0	0	8.711765e+01
436.436035	1.292771	city	6	1	0.718500	0.718500	0	1	0	0	CorrectCommission	2.464216	0.951313	0	0	8.741176e+01
437.728882	1.292954	city	10	1	0.665736	0.665736	0	1	0	0	CorrectCommission	2.730095	0.941006	0	0	8.770588e+01
439.021790	1.292821	city	7	1	1.207036	1.207036	0	1	0	0	CorrectCommission	0.002464	0.925158	0	0	88
440.328064	1.319746	city	1	1	0.997197	0.997197	0	1	0	0	CorrectCommission	1.059853	0.905158	0	0	8.829412e+01
441.627716	1.279533	city	5	1	1.201425	1.201425	0	1	0	0	CorrectCommission	0.030740	0.882728	0	0	8.858824e+01
442.907288	1.279623	city	4	1	1.346998	1.346998	0	1	0	0	CorrectCommission	0.702810	0.859810	0	0	8.888235e+01
444.220215	1.346221	city	9	1	1.202373	1.202373	0	1	0	0	CorrectCommission	0.025964	0.838171	0	0	8.917647e+01
445.559753	1.332891	city	7	1	1.190680	1.190680	0	1	0	0	CorrectCommission	0.084885	0.819281	0	0	8.947059e+01
446.872650	1.292906	city	9	1	0.934425	0.934425	0	1	0	0	CorrectCommission	1.376162	0.804150	0	0	8.976471e+01
448.192169	1.346129	city	6	1	0.919799	0.919799	0	1	0	0	CorrectCommission	1.449864	0.793327	1	0	9.005882e+01
449.531647	1.332826	city	2	1	1.024039	1.024039	0	1	0	0	CorrectCommission	0.924592	0.787057	1	0	9.035294e+01
450.851166	1.306219	city	7	1	0.996395	0.996395	0	1	0	0	CorrectCommission	1.063892	0.785424	1	0	9.064706e+01
452.150818	1.293073	city	8	1	1.155202	1.155202	0	1	0	0	CorrectCommission	0.263657	0.788411	1	0	9.094118e+01
453.443756	1.292778	city	5	1	1.032025	1.032025	0	1	0	0	CorrectCommission	0.884352	0.795965	1	0	9.123529e+01
454.736664	1.293035	city	6	1	1.145263	1.145263	0	1	0	0	CorrectCommission	0.313740	0.807952	0	0	9.152941e+01
456.022919	1.279507	city	1	1	0.969562	0.969562	0	1	0	0	CorrectCommission	1.199106	0.824120	0	0	9.182353e+01
457.302521	1.279665	city	6	1	1.322788	1.322788	0	1	0	0	CorrectCommission	0.580813	0.843999	0	0	9.211765e+01
458.635437	1.386186	city	8	1	1.152753	1.152753	0	1	0	0	CorrectCommission	0.275998	0.866860	0	0	9.241176e+01
459.974915	1.292768	city	2	1	1.333185	1.333185	0	1	0	0	CorrectCommission	0.633202	0.891695	0	0	9.270588e+01
464.113495	6.984363	break	0	0	0.000000	1.420695	0	0	0	0	ThoughtProbe	1.074170	0.917268	0	93	93
468.278717	1.346084	city	6	1	1.315529	1.315529	0	1	0	0	CorrectCommission	0.544233	0.942249	0	0	9.275000e+01
469.611694	1.319889	city	9	1	0.917930	0.917930	0	1	0	0	CorrectCommission	1.459282	0.965392	0	0	9.250000e+01
470.951416	1.359535	mountain	1	1	0.577244	0.577244	0	0	1	0	CommissionError	3.176010	0.985555	0	0	9.225000e+01
472.304291	1.346214	city	6	1	1.114213	1.114213	0	1	0	0	CorrectCommission	0.470204	1.001815	0	0	92
473.623779	1.292757	city	9	1	1.321265	1.321265	0	1	0	0	CorrectCommission	0.573137	1.013637	0	0	9.175000e+01
474.929962	1.319645	city	10	1	1.248769	1.248769	0	1	0	0	CorrectCommission	0.207829	1.020608	0	0	9.150000e+01
476.249634	1.319667	city	6	1	1.408633	1.408633	0	1	0	0	CorrectCommission	1.013388	1.022491	0	0	9.125000e+01
477.575897	1.332867	city	4	1	1.479825	1.479825	0	1	0	0	CorrectCommission	1.372126	1.019135	0	0	91
478.935364	1.386100	city	9	1	1.309966	1.309966	0	1	0	0	CorrectCommission	0.516205	1.010527	0	0	9.075000e+01
480.268280	1.279713	city	1	1	1.352021	1.352021	0	1	0	0	CorrectCommission	0.728120	0.996872	0	0	9.050000e+01
481.554565	1.292879	city	7	1	1.622900	1.622900	0	1	0	0	CorrectCommission	2.093089	0.978648	0	0	9.025000e+01
482.860809	1.319596	mountain	8	0	0.000000	1.644499	1	0	0	0	CorrectOmission	2.201928	0.956653	0	0	90
484.160400	1.279555	city	1	1	1.468822	1.468822	0	1	0	0	CorrectCommission	1.316684	0.932079	0	0	8.975000e+01
485.466614	1.332921	city	10	1	1.147872	1.147872	0	1	0	0	CorrectCommission	0.300597	0.906363	0	0	8.950000e+01
486.779449	1.292739	city	5	1	1.245203	1.245203	0	1	0	0	CorrectCommission	0.189862	0.881006	0	0	8.925000e+01
488.072266	1.292903	city	8	1	1.311088	1.311088	0	1	0	0	CorrectCommission	0.521857	0.857272	0	0	89
489.385254	1.333065	city	5	1	1.181788	1.181788	0	1	0	0	CorrectCommission	0.129690	0.836018	0	0	8.875000e+01
490.711578	1.319560	city	2	1	1.058692	1.058692	0	1	0	0	CorrectCommission	0.749978	0.817540	0	0	8.850000e+01
492.051056	1.359374	city	10	1	1.234382	1.234382	0	1	0	0	CorrectCommission	0.135331	0.801558	1	0	8.825000e+01
493.370605	1.279753	mountain	8	0	0.000000	1.526199	1	0	0	0	CorrectOmission	1.605808	0.787395	1	0	88
494.650238	1.279490	city	2	1	1.637729	1.637729	0	1	0	0	CorrectCommission	2.167815	0.774134	1	0	8.775000e+01
495.943146	1.306340	city	1	1	1.272560	1.272560	0	1	0	0	CorrectCommission	0.327713	0.760934	1	0	8.750000e+01
497.249420	1.306226	city	5	1	1.231543	1.231543	0	1	0	0	CorrectCommission	0.121025	0.747311	1	0	8.725000e+01
498.555573	1.306059	city	3	1	1.454093	1.454093	0	1	0	0	CorrectCommission	1.242466	0.733192	1	0	87
499.861816	1.306422	city	10	1	1.369397	1.369397	0	1	0	0	CorrectCommission	0.815676	0.718958	1	0	8.675000e+01
501.181458	1.332846	city	3	1	1.279123	1.279123	0	1	0	0	CorrectCommission	0.360786	0.705524	1	0	8.650000e+01
502.487671	1.279606	city	8	1	1.396594	1.396594	0	1	0	0	CorrectCommission	0.952726	0.694109	1	0	8.625000e+01
503.793915	1.332903	city	10	1	1.289744	1.289744	0	1	0	0	CorrectCommission	0.414301	0.686044	1	0	86
505.120087	1.319412	city	4	1	1.274688	1.274688	0	1	0	0	CorrectCommission	0.338435	0.682579	1	0	8.575000e+01
506.426331	1.293062	city	6	1	1.442014	1.442014	0	1	0	0	CorrectCommission	1.181595	0.684670	1	0	8.550000e+01
507.719208	1.292739	city	3	1	1.191205	1.191205	0	1	0	0	CorrectCommission	0.082236	0.692811	1	0	8.525000e+01
509.005371	1.279594	city	5	1	1.132717	1.132717	0	1	0	0	CorrectCommission	0.376961	0.707050	1	0	85
510.351715	1.413048	city	8	1	1.259799	1.259799	0	1	0	0	CorrectCommission	0.263408	0.726904	1	0	8.475000e+01
511.704681	1.292916	city	1	1	1.342968	1.342968	0	1	0	0	CorrectCommission	0.682502	0.751509	1	0	8.450000e+01
513.010864	1.319460	city	10	1	1.396189	1.396189	0	1	0	0	CorrectCommission	0.950683	0.779793	1	0	8.425000e+01
514.330322	1.319491	city	4	1	1.517538	1.517538	0	1	0	0	CorrectCommission	1.562167	0.810649	0	0	84
515.669922	1.359690	city	2	1	1.476148	1.476148	0	1	0	0	CorrectCommission	1.353601	0.843081	0	0	8.375000e+01
516.996094	1.292566	city	8	1	1.264847	1.264847	0	1	0	0	CorrectCommission	0.288846	0.876348	0	0	8.350000e+01
518.295654	1.306602	city	10	1	1.142540	1.142540	0	1	0	0	CorrectCommission	0.327465	0.910003	0	0	8.325000e+01
521.894836	5.891788	break	0	0	0.000000	1.020232	0	0	0	0	ThoughtProbe	0.943775	0.943775	0	83	83
