onset	duration	trial_type	image_type	Press	ReactionTime	ReactionTime_Interpolated	CorrectOmission	CorrectCommission	CommissionError	OmissionError	response_type	nonsmoothVarianceTimeCourse	VarianceTimeCourse	In_the_Zone	ThoughtProbe	ThoughtProbe_Interpolated
0.652979	1.279397	city	1	0	0.000000	1.979962	0	0	0	1	OmissionError	2.210407	2.210407	0	0	18
1.932545	1.279734	city	9	1	1.500322	1.500322	0	1	0	0	CorrectCommission	0.759711	2.032000	0	0	18
3.212200	1.279578	city	6	1	1.020682	1.020682	0	1	0	0	CorrectCommission	0.690985	1.858580	0	0	18
4.491725	1.279473	city	8	1	0.645305	0.645305	0	1	0	0	CorrectCommission	1.826333	1.694675	0	0	18
5.771264	1.279604	mountain	3	1	1.723980	1.723980	0	0	1	0	CommissionError	1.436177	1.543986	0	0	18
7.064213	1.306293	city	6	1	1.683522	1.683522	0	1	0	0	CorrectCommission	1.313809	1.409226	0	0	18
8.357165	1.279611	city	5	1	1.408883	1.408883	0	1	0	0	CorrectCommission	0.483149	1.291918	0	0	18
9.636695	1.279448	city	2	1	1.177556	1.177556	0	1	0	0	CorrectCommission	0.216511	1.192471	0	0	18
10.916269	1.279701	mountain	1	1	1.881310	1.881310	0	0	1	0	CommissionError	1.912027	1.110268	0	0	18
12.195923	1.279607	city	6	1	1.601286	1.601286	0	1	0	0	CorrectCommission	1.065083	1.043892	0	0	18
13.475515	1.279578	city	7	1	1.514743	1.514743	0	1	0	0	CorrectCommission	0.803328	0.991449	0	0	18
14.755070	1.279531	city	8	1	1.174800	1.174800	0	1	0	0	CorrectCommission	0.224847	0.950768	0	0	18
16.047985	1.306300	city	1	1	1.006163	1.006163	0	1	0	0	CorrectCommission	0.734900	0.919656	0	0	18
17.347586	1.292901	city	4	1	0.865312	0.865312	0	1	0	0	CorrectCommission	1.160909	0.896097	0	0	18
18.633816	1.279561	city	3	1	1.130539	1.130539	0	1	0	0	CorrectCommission	0.358718	0.878442	0	0	18
19.913332	1.279469	city	1	1	0.703114	0.703114	0	1	0	0	CorrectCommission	1.651487	0.865476	0	0	18
21.192923	1.279714	city	3	1	1.683360	1.683360	0	1	0	0	CorrectCommission	1.313317	0.856402	0	0	18
22.479143	1.292725	mountain	2	0	0.000000	1.627286	1	0	0	0	CorrectOmission	1.143721	0.850837	0	0	18
23.765369	1.279729	city	10	1	1.235472	1.235472	0	1	0	0	CorrectCommission	0.041343	0.848661	0	0	18
25.044954	1.279442	city	3	1	1.208493	1.208493	0	1	0	0	CorrectCommission	0.122941	0.849888	0	0	18
26.324543	1.279736	city	7	1	0.964390	0.964390	0	1	0	0	CorrectCommission	0.861242	0.854451	0	0	18
27.604191	1.279559	city	3	1	0.966938	0.966938	0	1	0	0	CorrectCommission	0.853538	0.862095	0	0	18
28.883741	1.279541	city	4	1	1.568983	1.568983	0	1	0	0	CorrectCommission	0.967380	0.872326	0	0	18
30.163326	1.279631	city	5	1	1.467834	1.467834	0	1	0	0	CorrectCommission	0.661447	0.884395	0	0	18
31.449543	1.292801	city	4	1	1.830910	1.830910	0	1	0	0	CorrectCommission	1.759592	0.897311	0	0	18
32.735783	1.279681	mountain	9	0	0.000000	1.523944	1	0	0	0	CorrectOmission	0.831156	0.909871	0	0	18
34.015419	1.279588	city	10	1	1.073355	1.073355	0	1	0	0	CorrectCommission	0.531673	0.920835	0	0	18
35.308281	1.306141	city	2	1	1.005565	1.005565	0	1	0	0	CorrectCommission	0.736707	0.928955	0	0	18
36.614521	1.306334	city	8	1	0.966697	0.966697	0	1	0	0	CorrectCommission	0.854265	0.933094	0	0	18
37.907478	1.279586	city	1	1	0.767681	0.767681	0	1	0	0	CorrectCommission	1.456201	0.932313	0	0	18
39.200310	1.306073	city	8	1	1.728651	1.728651	0	1	0	0	CorrectCommission	1.450303	0.925911	0	0	18
40.513210	1.319730	city	9	1	1.392097	1.392097	0	1	0	0	CorrectCommission	0.432377	0.913544	0	0	18
41.826176	1.306196	city	4	1	0.949943	0.949943	0	1	0	0	CorrectCommission	0.904940	0.895256	0	0	18
43.118996	1.279449	city	5	1	0.804606	0.804606	0	1	0	0	CorrectCommission	1.344518	0.871422	0	0	18
44.425259	1.333073	city	9	1	0.806447	0.806447	0	1	0	0	CorrectCommission	1.338949	0.842705	0	0	18
45.731579	1.279566	city	4	1	1.673931	1.673931	0	1	0	0	CorrectCommission	1.284799	0.809955	0	0	18
47.011147	1.279575	city	2	1	1.294542	1.294542	0	1	0	0	CorrectCommission	0.137318	0.774113	1	0	18
48.297344	1.292816	city	8	1	1.310280	1.310280	0	1	0	0	CorrectCommission	0.184919	0.736059	1	0	18
49.596920	1.306334	city	10	1	1.197331	1.197331	0	1	0	0	CorrectCommission	0.156701	0.696534	1	0	18
50.916534	1.332897	city	1	1	0.946567	0.946567	0	1	0	0	CorrectCommission	0.915149	0.656123	1	0	18
52.236099	1.306231	city	8	1	1.586312	1.586312	0	1	0	0	CorrectCommission	1.019791	0.615310	1	0	18
53.535587	1.292746	city	2	1	1.047248	1.047248	0	1	0	0	CorrectCommission	0.610636	0.574570	1	0	18
54.835163	1.306405	city	6	1	1.595233	1.595233	0	1	0	0	CorrectCommission	1.046772	0.534465	1	0	18
56.141464	1.306197	city	5	1	1.383073	1.383073	0	1	0	0	CorrectCommission	0.405085	0.495721	1	0	18
57.441021	1.292918	city	6	1	1.407024	1.407024	0	1	0	0	CorrectCommission	0.477527	0.459284	1	0	18
61.399738	6.624514	break	0	0	0.000000	1.323907	0	0	0	0	ThoughtProbe	0.226135	0.426242	1	18	18
65.391785	1.359586	city	8	1	1.213040	1.213040	0	1	0	0	CorrectCommission	0.109188	0.397724	1	0	1.967500e+01
66.717926	1.292695	city	9	1	1.153743	1.153743	0	1	0	0	CorrectCommission	0.288536	0.374773	1	0	2.135000e+01
68.037491	1.346438	city	8	1	1.194709	1.194709	0	1	0	0	CorrectCommission	0.164633	0.358210	1	0	2.302500e+01
69.357040	1.292656	mountain	2	0	0.000000	1.247816	1	0	0	0	CorrectOmission	0.004007	0.348499	1	0	2.470000e+01
70.669991	1.333249	city	5	1	1.304681	1.304681	0	1	0	0	CorrectCommission	0.167983	0.345712	1	0	2.637500e+01
71.982925	1.292611	mountain	4	0	0.000000	1.356917	1	0	0	0	CorrectOmission	0.325976	0.349509	1	0	2.805000e+01
73.269020	1.279578	city	5	1	1.371741	1.371741	0	1	0	0	CorrectCommission	0.370810	0.359198	1	0	2.972500e+01
74.555260	1.292905	city	3	1	1.316365	1.316365	0	1	0	0	CorrectCommission	0.203323	0.373856	1	0	3.140000e+01
75.848175	1.292925	city	4	1	1.360697	1.360697	0	1	0	0	CorrectCommission	0.337408	0.392418	1	0	3.307500e+01
77.147720	1.306171	city	3	1	1.542717	1.542717	0	1	0	0	CorrectCommission	0.887936	0.413762	1	0	3.475000e+01
78.467323	1.333027	city	8	1	1.409213	1.409213	0	1	0	0	CorrectCommission	0.484146	0.436769	1	0	3.642500e+01
79.786903	1.306140	city	2	1	1.450567	1.450567	0	1	0	0	CorrectCommission	0.609224	0.460368	1	0	3.810000e+01
81.093163	1.306382	city	6	1	1.219217	1.219217	0	1	0	0	CorrectCommission	0.090507	0.483504	1	0	3.977500e+01
82.386162	1.279613	city	9	1	1.430926	1.430926	0	1	0	0	CorrectCommission	0.549819	0.505132	1	0	4.145000e+01
83.712410	1.372887	city	6	1	1.283359	1.283359	0	1	0	0	CorrectCommission	0.103495	0.524194	1	0	4.312500e+01
85.045341	1.292966	city	3	1	1.156471	1.156471	0	1	0	0	CorrectCommission	0.280284	0.539690	1	0	4.480000e+01
86.338181	1.292714	mountain	10	0	0.000000	0.933044	1	0	0	0	CorrectOmission	0.956053	0.550729	1	0	4.647500e+01
87.631058	1.293038	city	2	1	0.817251	0.817251	0	1	0	0	CorrectCommission	1.306274	0.556687	1	0	4.815000e+01
88.943939	1.332723	city	9	1	1.013267	1.013267	0	1	0	0	CorrectCommission	0.713413	0.557335	1	0	4.982500e+01
90.256752	1.292905	city	8	1	1.543576	1.543576	0	1	0	0	CorrectCommission	0.890534	0.553021	1	0	5.150000e+01
91.569649	1.332887	city	10	1	1.206765	1.206765	0	1	0	0	CorrectCommission	0.128169	0.544661	1	0	5.317500e+01
92.875908	1.279638	city	4	1	1.568360	1.568360	0	1	0	0	CorrectCommission	0.965496	0.533769	1	0	5.485000e+01
94.175560	1.319663	city	2	1	1.150459	1.150459	0	1	0	0	CorrectCommission	0.298468	0.522274	1	0	5.652500e+01
95.475105	1.279425	city	1	1	1.413569	1.413569	0	1	0	0	CorrectCommission	0.497322	0.512383	1	0	5.820000e+01
96.767998	1.306363	city	8	1	1.395763	1.395763	0	1	0	0	CorrectCommission	0.443466	0.506287	1	0	5.987500e+01
98.067657	1.292963	city	9	1	1.336348	1.336348	0	1	0	0	CorrectCommission	0.263763	0.505871	1	0	6.155000e+01
99.367264	1.306241	city	1	1	1.227337	1.227337	0	1	0	0	CorrectCommission	0.065947	0.512474	1	0	6.322500e+01
100.680138	1.319508	city	4	1	1.128175	1.128175	0	1	0	0	CorrectCommission	0.365869	0.526685	1	0	6.490000e+01
102.006371	1.332954	city	9	1	1.063095	1.063095	0	1	0	0	CorrectCommission	0.562706	0.548210	1	0	6.657500e+01
103.312546	1.279399	city	8	1	1.143719	1.143719	0	1	0	0	CorrectCommission	0.318855	0.575902	1	0	6.825000e+01
104.592033	1.279585	city	1	1	1.356926	1.356926	0	1	0	0	CorrectCommission	0.326002	0.607901	1	0	6.992500e+01
105.891701	1.319747	city	3	1	1.260476	1.260476	0	1	0	0	CorrectCommission	0.034285	0.641865	1	0	7.160000e+01
107.204697	1.306238	city	10	1	1.037137	1.037137	0	1	0	0	CorrectCommission	0.641215	0.675329	1	0	7.327500e+01
108.497597	1.279570	city	6	1	1.691874	1.691874	0	1	0	0	CorrectCommission	1.339070	0.706039	1	0	7.495000e+01
109.790489	1.306212	city	5	1	1.936820	1.936820	0	1	0	0	CorrectCommission	2.079922	0.732305	1	0	7.662500e+01
111.103294	1.319405	city	10	1	1.650836	1.650836	0	1	0	0	CorrectCommission	1.214948	0.753205	1	0	7.830000e+01
112.442802	1.359608	city	6	1	1.552853	1.552853	0	1	0	0	CorrectCommission	0.918593	0.768700	1	0	7.997500e+01
113.769127	1.293039	city	9	1	1.244365	1.244365	0	1	0	0	CorrectCommission	0.014445	0.779487	1	0	8.165000e+01
115.075333	1.319376	city	3	1	0.994882	0.994882	0	1	0	0	CorrectCommission	0.769019	0.786793	1	0	8.332500e+01
118.560814	5.651583	break	0	1	1.027294	1.027294	0	0	0	0	ThoughtProbe	0.670986	0.792007	1	85	85
122.026367	1.279524	city	6	1	1.476347	1.476347	0	1	0	0	CorrectCommission	0.687196	0.796399	1	0	85
123.305984	1.279713	mountain	9	0	0.000000	1.361122	1	0	0	0	CorrectOmission	0.338693	0.800808	1	0	85
124.598946	1.306209	city	4	1	1.017484	1.017484	0	1	0	0	CorrectCommission	0.700659	0.805502	0	0	85
125.905182	1.306259	city	10	1	0.781294	0.781294	0	1	0	0	CorrectCommission	1.415028	0.810079	0	0	85
127.198097	1.279584	city	4	1	1.100546	1.100546	0	1	0	0	CorrectCommission	0.449432	0.813618	0	0	85
128.484344	1.292894	city	10	1	1.033560	1.033560	0	1	0	0	CorrectCommission	0.652035	0.814896	0	0	85
129.770508	1.279450	city	1	1	0.825533	0.825533	0	1	0	0	CorrectCommission	1.281225	0.812609	0	0	85
131.056778	1.293082	city	6	1	0.928736	0.928736	0	1	0	0	CorrectCommission	0.969081	0.805665	0	0	85
132.349670	1.292698	city	1	1	0.978924	0.978924	0	1	0	0	CorrectCommission	0.817284	0.793504	1	0	85
133.655807	1.319577	city	9	1	0.863434	0.863434	0	1	0	0	CorrectCommission	1.166590	0.776260	1	0	85
134.962067	1.292954	city	5	1	0.846293	0.846293	0	1	0	0	CorrectCommission	1.218436	0.754828	1	0	85
136.248337	1.279572	city	6	1	0.996452	0.996452	0	1	0	0	CorrectCommission	0.764271	0.730825	1	0	85
137.534637	1.293025	mountain	7	0	0.000000	1.036658	1	0	0	0	CorrectOmission	0.642666	0.706424	1	0	85
138.820953	1.279624	city	8	1	1.127728	1.127728	0	1	0	0	CorrectCommission	0.367220	0.684068	1	0	85
140.107193	1.292851	city	9	1	1.430479	1.430479	0	1	0	0	CorrectCommission	0.548466	0.666100	1	0	85
141.399994	1.292758	city	7	1	1.370735	1.370735	0	1	0	0	CorrectCommission	0.367767	0.654443	1	0	85
142.706161	1.319556	city	8	1	1.204943	1.204943	0	1	0	0	CorrectCommission	0.133679	0.650249	1	0	85
144.005814	1.279750	city	7	1	1.399565	1.399565	0	1	0	0	CorrectCommission	0.454966	0.653749	1	0	85
145.292053	1.292734	city	4	1	1.436186	1.436186	0	1	0	0	CorrectCommission	0.565728	0.664165	1	0	85
146.611526	1.346226	city	2	1	1.423226	1.423226	0	1	0	0	CorrectCommission	0.526529	0.679785	1	0	85
147.937790	1.306291	city	3	0	0.000000	1.120264	0	0	0	1	OmissionError	0.389794	0.698185	1	0	85
149.244034	1.306191	city	7	1	0.968464	0.968464	0	1	0	0	CorrectCommission	0.848921	0.716589	1	0	85
150.536911	1.279584	city	3	1	1.408991	1.408991	0	1	0	0	CorrectCommission	0.483474	0.732263	1	0	85
151.856491	1.359560	city	7	1	1.743948	1.743948	0	1	0	0	CorrectCommission	1.496570	0.742972	1	0	85
153.176041	1.279559	city	10	1	1.872986	1.872986	0	1	0	0	CorrectCommission	1.886852	0.747253	1	0	85
154.489029	1.346405	city	8	1	1.710294	1.710294	0	1	0	0	CorrectCommission	1.394783	0.744667	1	0	85
155.841934	1.359393	city	6	1	1.259492	1.259492	0	1	0	0	CorrectCommission	0.031307	0.735870	1	0	85
157.188141	1.333039	city	3	1	1.085781	1.085781	0	1	0	0	CorrectCommission	0.494090	0.722512	1	0	85
158.494400	1.279467	city	5	1	1.593519	1.593519	0	1	0	0	CorrectCommission	1.041589	0.706885	1	0	85
159.800644	1.333027	city	6	1	1.556162	1.556162	0	1	0	0	CorrectCommission	0.928601	0.691617	1	0	85
161.113525	1.292721	city	1	1	1.224832	1.224832	0	1	0	0	CorrectCommission	0.073524	0.679318	1	0	85
162.413101	1.306443	city	7	1	1.241581	1.241581	0	1	0	0	CorrectCommission	0.022865	0.672194	1	0	85
163.752716	1.372797	city	6	1	1.079982	1.079982	0	1	0	0	CorrectCommission	0.511630	0.671765	1	0	85
167.498062	6.117896	break	0	1	1.231235	1.231235	0	0	0	0	ThoughtProbe	0.054158	0.678737	1	85	85
171.216873	1.319708	mountain	10	1	1.757244	1.757244	0	0	1	0	CommissionError	1.536785	0.693028	1	0	8.307500e+01
172.523331	1.293213	city	5	1	1.275478	1.275478	0	1	0	0	CorrectCommission	0.079657	0.713812	1	0	8.115000e+01
173.809586	1.279302	city	4	1	1.103857	1.103857	0	1	0	0	CorrectCommission	0.439419	0.739784	1	0	7.922500e+01
175.108994	1.319496	city	9	1	0.630403	0.630403	0	1	0	0	CorrectCommission	1.871404	0.769270	1	0	7.730000e+01
176.408478	1.279469	city	8	1	1.018171	1.018171	0	1	0	0	CorrectCommission	0.698579	0.800450	1	0	7.537500e+01
177.708054	1.319703	city	2	1	1.384737	1.384737	0	1	0	0	CorrectCommission	0.410116	0.831599	0	0	7.345000e+01
179.014374	1.292931	city	4	1	1.073427	1.073427	0	1	0	0	CorrectCommission	0.531454	0.861148	0	0	7.152500e+01
180.320541	1.319392	city	3	1	0.955080	0.955080	0	1	0	0	CorrectCommission	0.889402	0.887786	0	0	6.960000e+01
181.626694	1.292917	mountain	6	1	0.677161	0.677161	0	0	1	0	CommissionError	1.729982	0.910482	0	0	6.767500e+01
182.926346	1.306399	city	5	1	0.853617	0.853617	0	1	0	0	CorrectCommission	1.196281	0.928487	0	0	6.575000e+01
184.225998	1.292916	city	2	1	1.594813	1.594813	0	1	0	0	CorrectCommission	1.045504	0.941397	0	0	6.382500e+01
185.518921	1.292906	city	9	1	1.180542	1.180542	0	1	0	0	CorrectCommission	0.207480	0.949047	0	0	6.190000e+01
186.831818	1.332897	city	8	1	0.788476	0.788476	0	1	0	0	CorrectCommission	1.393305	0.951531	0	0	5.997500e+01
188.171356	1.346171	city	1	1	0.961023	0.961023	0	1	0	0	CorrectCommission	0.871426	0.949146	0	0	5.805000e+01
189.484177	1.279476	city	3	0	0.000000	1.472850	0	0	0	1	OmissionError	0.676619	0.942423	0	0	5.612500e+01
190.770447	1.293069	city	2	1	1.865979	1.865979	0	1	0	0	CorrectCommission	1.865660	0.932086	0	0	5.420000e+01
192.083359	1.332759	city	3	1	1.682436	1.682436	0	1	0	0	CorrectCommission	1.310523	0.918972	0	0	5.227500e+01
193.402924	1.306359	city	10	1	1.497157	1.497157	0	1	0	0	CorrectCommission	0.750138	0.904085	0	0	5.035000e+01
194.735794	1.359375	city	5	1	1.209919	1.209919	0	1	0	0	CorrectCommission	0.118629	0.888495	0	0	4.842500e+01
196.102005	1.373073	mountain	10	1	1.113528	1.113528	0	0	1	0	CommissionError	0.410167	0.873347	0	0	4.650000e+01
197.468231	1.359362	city	2	1	0.890954	0.890954	0	1	0	0	CorrectCommission	1.083355	0.859779	0	0	4.457500e+01
198.787796	1.279765	city	8	1	1.744996	1.744996	0	1	0	0	CorrectCommission	1.499738	0.848928	0	0	4.265000e+01
200.100693	1.346050	city	5	1	1.504069	1.504069	0	1	0	0	CorrectCommission	0.771043	0.841893	0	0	4.072500e+01
201.440247	1.333044	city	7	1	1.370294	1.370294	0	1	0	0	CorrectCommission	0.366434	0.839748	0	0	3.880000e+01
202.766556	1.319573	city	9	1	1.048651	1.048651	0	1	0	0	CorrectCommission	0.606391	0.843417	0	0	3.687500e+01
204.079468	1.306258	city	8	1	0.930003	0.930003	0	1	0	0	CorrectCommission	0.965249	0.853538	0	0	3.495000e+01
205.372299	1.279401	city	9	1	1.710004	1.710004	0	1	0	0	CorrectCommission	1.393905	0.870376	0	0	3.302500e+01
206.651855	1.279724	city	10	1	1.420574	1.420574	0	1	0	0	CorrectCommission	0.518508	0.893621	0	0	3.110000e+01
207.958099	1.332742	city	5	1	1.229743	1.229743	0	1	0	0	CorrectCommission	0.058671	0.922284	0	0	2.917500e+01
209.317596	1.386263	city	3	1	0.876447	0.876447	0	1	0	0	CorrectCommission	1.127233	0.954596	0	0	2.725000e+01
210.683914	1.346359	city	6	1	1.457430	1.457430	0	1	0	0	CorrectCommission	0.629982	0.988037	0	0	2.532500e+01
212.003540	1.292911	city	8	1	1.436897	1.436897	0	1	0	0	CorrectCommission	0.567878	1.019598	0	0	2.340000e+01
213.303024	1.306054	city	2	1	1.736867	1.736867	0	1	0	0	CorrectCommission	1.475152	1.046065	0	0	2.147500e+01
214.615875	1.319634	city	4	1	1.433884	1.433884	0	1	0	0	CorrectCommission	0.558765	1.064450	0	0	1.955000e+01
215.935425	1.319490	city	3	1	1.990774	1.990774	0	1	0	0	CorrectCommission	2.243106	1.072484	0	0	1.762500e+01
217.234970	1.279594	city	8	1	1.991066	1.991066	0	1	0	0	CorrectCommission	2.243990	1.068968	0	0	1.570000e+01
218.521210	1.292890	city	10	1	2.070259	2.070259	0	1	0	0	CorrectCommission	2.483513	1.054098	0	0	1.377500e+01
219.820786	1.306239	city	9	1	1.097419	1.097419	0	1	0	0	CorrectCommission	0.458890	1.029422	0	0	1.185000e+01
221.113708	1.279601	city	8	0	0.000000	0.866807	0	0	0	1	OmissionError	1.156387	0.997716	0	0	9.925000e+00
221.753494	11.769468	break	0	0	0.000000	1.024904	0	0	0	0	ThoughtProbe	0.678215	0.962445	0	8	8
234.176163	1.306392	city	9	1	1.218190	1.218190	0	1	0	0	CorrectCommission	0.093612	0.927305	0	0	1.011765e+01
235.475906	1.293091	city	6	1	1.093146	1.093146	0	1	0	0	CorrectCommission	0.471814	0.895631	0	0	1.223529e+01
236.782104	1.319315	city	10	1	1.069517	1.069517	0	1	0	0	CorrectCommission	0.543282	0.869917	0	0	1.435294e+01
238.114822	1.346107	city	3	1	1.133977	1.133977	0	1	0	0	CorrectCommission	0.348319	0.851534	0	0	1.647059e+01
239.447754	1.319753	city	10	1	1.043908	1.043908	0	1	0	0	CorrectCommission	0.620737	0.840734	0	0	1.858824e+01
240.754089	1.292913	city	9	1	0.821468	0.821468	0	1	0	0	CorrectCommission	1.293517	0.836778	0	0	2.070588e+01
242.060226	1.319374	city	5	1	0.919621	0.919621	0	1	0	0	CorrectCommission	0.996650	0.838270	0	0	2.282353e+01
243.366379	1.292924	mountain	7	1	1.015617	1.015617	0	0	1	0	CommissionError	0.706306	0.843584	0	0	2.494118e+01
244.665955	1.306242	city	8	1	1.028191	1.028191	0	1	0	0	CorrectCommission	0.668275	0.851255	0	0	2.705882e+01
245.965561	1.292965	city	5	1	0.891995	0.891995	0	1	0	0	CorrectCommission	1.080205	0.860296	0	0	2.917647e+01
247.285141	1.346197	city	7	1	0.748324	0.748324	0	1	0	0	CorrectCommission	1.514745	0.870413	0	0	3.129412e+01
248.604752	1.293017	city	10	1	0.768253	0.768253	0	1	0	0	CorrectCommission	1.454470	0.881948	0	0	3.341176e+01
249.897629	1.292752	city	3	1	0.983498	0.983498	0	1	0	0	CorrectCommission	0.803451	0.895777	0	0	3.552941e+01
251.230453	1.372889	city	7	1	1.118107	1.118107	0	1	0	0	CorrectCommission	0.396320	0.912988	0	0	3.764706e+01
252.570053	1.306323	city	2	1	1.107093	1.107093	0	1	0	0	CorrectCommission	0.429630	0.934469	0	0	3.976471e+01
253.876389	1.306324	city	1	1	1.100856	1.100856	0	1	0	0	CorrectCommission	0.448495	0.960618	0	0	4.188235e+01
255.175980	1.292860	city	2	1	1.211996	1.211996	0	1	0	0	CorrectCommission	0.112347	0.991060	0	0	44
256.515533	1.386239	city	10	1	0.944438	0.944438	0	1	0	0	CorrectCommission	0.921589	1.024611	0	0	4.611765e+01
257.895020	1.372719	city	7	1	0.857689	0.857689	0	1	0	0	CorrectCommission	1.183965	1.059312	0	0	4.823529e+01
259.241241	1.319749	mountain	1	0	0.000000	0.684333	1	0	0	0	CorrectOmission	1.708291	1.092733	0	0	5.035294e+01
260.540894	1.279554	city	9	1	0.538204	0.538204	0	1	0	0	CorrectCommission	2.150264	1.122221	0	0	5.247059e+01
261.873779	1.386255	city	7	1	0.533140	0.533140	0	1	0	0	CorrectCommission	2.165581	1.145225	0	0	5.458824e+01
263.239929	1.346018	city	4	1	1.198203	1.198203	0	1	0	0	CorrectCommission	0.154064	1.159570	0	0	5.670588e+01
264.579407	1.332919	city	8	1	1.012375	1.012375	0	1	0	0	CorrectCommission	0.716111	1.163656	0	0	5.882353e+01
265.899048	1.306405	city	2	1	0.886023	0.886023	0	1	0	0	CorrectCommission	1.098268	1.156479	0	0	6.094118e+01
267.198700	1.292868	city	9	1	0.649633	0.649633	0	1	0	0	CorrectCommission	1.813243	1.137712	0	0	6.305882e+01
268.511566	1.332882	city	3	1	0.693053	0.693053	0	1	0	0	CorrectCommission	1.681916	1.107678	0	0	6.517647e+01
269.851105	1.346178	city	4	1	0.641022	0.641022	0	1	0	0	CorrectCommission	1.839288	1.067327	0	0	6.729412e+01
271.210632	1.372906	city	9	1	1.307558	1.307558	0	1	0	0	CorrectCommission	0.176685	1.018167	0	0	6.941176e+01
272.550140	1.306118	city	1	1	0.778855	0.778855	0	1	0	0	CorrectCommission	1.422403	0.962202	0	0	7.152941e+01
273.869659	1.332903	city	9	1	1.097249	1.097249	0	1	0	0	CorrectCommission	0.459403	0.901755	0	0	7.364706e+01
275.209290	1.346322	city	3	1	0.845618	0.845618	0	1	0	0	CorrectCommission	1.220475	0.839414	0	0	7.576471e+01
276.528931	1.293000	city	2	1	0.823427	0.823427	0	1	0	0	CorrectCommission	1.287593	0.777772	1	0	7.788235e+01
280.167786	5.984669	break	0	1	1.156398	1.156398	0	0	0	0	ThoughtProbe	0.280507	0.719315	1	80	80
283.799805	1.279415	city	4	1	1.336835	1.336835	0	1	0	0	CorrectCommission	0.265236	0.666258	1	0	7.895652e+01
285.079315	1.279601	mountain	3	0	0.000000	1.204603	1	0	0	0	CorrectOmission	0.134707	0.620364	1	0	7.791304e+01
286.365570	1.292903	city	10	1	1.057752	1.057752	0	1	0	0	CorrectCommission	0.578866	0.582839	1	0	7.686957e+01
287.658478	1.292903	city	9	1	1.194333	1.194333	0	1	0	0	CorrectCommission	0.165771	0.554259	1	0	7.582609e+01
288.944702	1.279561	city	8	1	1.177018	1.177018	0	1	0	0	CorrectCommission	0.218138	0.534640	1	0	7.478261e+01
290.224304	1.279597	city	6	1	1.017994	1.017994	0	1	0	0	CorrectCommission	0.699114	0.523466	1	0	7.373913e+01
291.503906	1.279653	city	5	1	1.077974	1.077974	0	1	0	0	CorrectCommission	0.517702	0.519830	1	0	7.269565e+01
292.783569	1.279673	city	7	1	1.070873	1.070873	0	1	0	0	CorrectCommission	0.539179	0.522611	1	0	7.165217e+01
294.069885	1.292917	city	9	1	1.070104	1.070104	0	1	0	0	CorrectCommission	0.541506	0.530568	1	0	7.060870e+01
295.362793	1.292924	city	5	1	0.990794	0.990794	0	1	0	0	CorrectCommission	0.781383	0.542490	1	0	6.956522e+01
296.649017	1.279535	city	9	1	1.123932	1.123932	0	1	0	0	CorrectCommission	0.378700	0.557298	1	0	6.852174e+01
297.935242	1.292927	city	7	1	1.190722	1.190722	0	1	0	0	CorrectCommission	0.176689	0.574059	1	0	6.747826e+01
299.221436	1.279422	mountain	1	0	0.000000	1.060661	1	0	0	0	CorrectOmission	0.570066	0.592022	1	0	6.643478e+01
300.501007	1.279707	city	7	1	0.964294	0.964294	0	1	0	0	CorrectCommission	0.861532	0.610635	1	0	6.539130e+01
301.780640	1.279607	city	4	1	1.132167	1.132167	0	1	0	0	CorrectCommission	0.353793	0.629610	1	0	6.434783e+01
303.066925	1.292922	mountain	8	0	0.000000	1.542193	1	0	0	0	CorrectOmission	0.886351	0.648922	1	0	6.330435e+01
304.353088	1.279415	city	1	1	1.710192	1.710192	0	1	0	0	CorrectCommission	1.394472	0.668812	1	0	6.226087e+01
305.639313	1.293067	city	9	1	1.151984	1.151984	0	1	0	0	CorrectCommission	0.293857	0.689735	1	0	6.121739e+01
306.932281	1.292876	city	7	1	1.190544	1.190544	0	1	0	0	CorrectCommission	0.177228	0.712399	1	0	6.017391e+01
308.218536	1.279605	city	2	1	1.079289	1.079289	0	1	0	0	CorrectCommission	0.513727	0.737620	1	0	5.913043e+01
309.498047	1.279447	city	3	1	1.723229	1.723229	0	1	0	0	CorrectCommission	1.433904	0.766236	1	0	5.808696e+01
310.784302	1.293043	city	8	0	0.000000	1.655380	0	0	0	1	OmissionError	1.228690	0.799001	1	0	5.704348e+01
312.070557	1.279448	city	7	1	1.304734	1.304734	0	1	0	0	CorrectCommission	0.168144	0.836458	0	0	56
313.350128	1.279684	city	1	0	0.000000	1.100284	0	0	0	1	OmissionError	0.450224	0.878822	0	0	5.495652e+01
314.629761	1.279585	city	4	1	1.124124	1.124124	0	1	0	0	CorrectCommission	0.378119	0.925867	0	0	5.391304e+01
315.916016	1.292923	city	2	1	1.458347	1.458347	0	1	0	0	CorrectCommission	0.632753	0.976934	0	0	5.286957e+01
317.208832	1.292729	city	9	1	1.780092	1.780092	0	1	0	0	CorrectCommission	1.605889	1.030956	0	0	5.182609e+01
318.495026	1.279673	city	2	1	1.568791	1.568791	0	1	0	0	CorrectCommission	0.966800	1.086510	0	0	5.078261e+01
319.781403	1.293056	city	4	1	1.788174	1.788174	0	1	0	0	CorrectCommission	1.630332	1.141989	0	0	4.973913e+01
321.067688	1.279508	city	8	1	1.923291	1.923291	0	1	0	0	CorrectCommission	2.039001	1.195641	0	0	4.869565e+01
322.347229	1.279582	mountain	6	0	0.000000	1.629332	1	0	0	0	CorrectOmission	1.149906	1.245684	0	0	4.765217e+01
323.626740	1.279468	city	2	1	1.315305	1.315305	0	1	0	0	CorrectCommission	0.200117	1.290376	0	0	4.660870e+01
324.906250	1.279530	city	1	1	1.390220	1.390220	0	1	0	0	CorrectCommission	0.426700	1.328070	0	0	4.556522e+01
326.185883	1.279722	city	4	1	1.976550	1.976550	0	1	0	0	CorrectCommission	2.200088	1.357228	0	0	4.452174e+01
327.465485	1.279511	city	6	0	0.000000	2.104794	0	0	0	1	OmissionError	2.587967	1.376460	0	0	4.347826e+01
328.751740	1.292976	city	9	0	0.000000	1.955842	0	0	0	1	OmissionError	2.137455	1.384653	0	0	4.243478e+01
330.037964	1.279514	city	8	1	1.710587	1.710587	0	1	0	0	CorrectCommission	1.395668	1.381010	0	0	4.139130e+01
331.317566	1.279679	city	7	1	1.549920	1.549920	0	1	0	0	CorrectCommission	0.909724	1.365092	0	0	4.034783e+01
332.603851	1.292892	city	4	0	0.000000	1.590886	0	0	0	1	OmissionError	1.033625	1.336843	0	0	3.930435e+01
333.896667	1.292741	city	2	0	0.000000	1.722964	0	0	0	1	OmissionError	1.433103	1.296658	0	0	3.826087e+01
335.182922	1.279738	city	5	0	0.000000	1.835638	0	0	0	1	OmissionError	1.773890	1.245403	0	0	3.721739e+01
336.462585	1.279597	city	7	1	1.818388	1.818388	0	1	0	0	CorrectCommission	1.721717	1.184434	0	0	3.617391e+01
337.742157	1.279558	city	4	1	1.560696	1.560696	0	1	0	0	CorrectCommission	0.942314	1.115610	0	0	3.513043e+01
339.021729	1.279606	city	5	1	1.766243	1.766243	0	1	0	0	CorrectCommission	1.564004	1.041291	0	0	3.408696e+01
340.301300	1.279510	city	7	1	1.629115	1.629115	0	1	0	0	CorrectCommission	1.149252	0.964228	0	0	3.304348e+01
344.399872	6.917629	break	0	0	0.000000	1.509355	0	0	0	0	ThoughtProbe	0.787030	0.887451	0	32	32
348.505219	1.293040	city	6	1	1.358793	1.358793	0	1	0	0	CorrectCommission	0.331648	0.814051	0	0	3.190000e+01
349.791443	1.279446	city	7	1	1.129261	1.129261	0	1	0	0	CorrectCommission	0.362582	0.746960	1	0	3.180000e+01
351.084290	1.306226	mountain	9	0	0.000000	1.071143	1	0	0	0	CorrectOmission	0.538364	0.688683	1	0	3.170000e+01
352.397156	1.319545	city	3	1	1.121750	1.121750	0	1	0	0	CorrectCommission	0.385301	0.641146	1	0	3.160000e+01
353.743378	1.372889	city	9	1	1.218394	1.218394	0	1	0	0	CorrectCommission	0.092994	0.605551	1	0	3.150000e+01
355.083038	1.306417	city	4	1	1.384911	1.384911	0	1	0	0	CorrectCommission	0.410644	0.582328	1	0	3.140000e+01
356.389374	1.306229	city	3	1	1.416737	1.416737	0	1	0	0	CorrectCommission	0.506905	0.571129	1	0	3.130000e+01
357.695526	1.306099	city	9	1	1.114068	1.114068	0	1	0	0	CorrectCommission	0.408535	0.570942	1	0	3.120000e+01
359.021729	1.346329	city	10	1	0.950699	0.950699	0	1	0	0	CorrectCommission	0.902654	0.580193	1	0	3.110000e+01
360.361359	1.332914	city	9	1	1.103858	1.103858	0	1	0	0	CorrectCommission	0.439415	0.596854	1	0	31
361.694183	1.332737	city	1	1	1.173771	1.173771	0	1	0	0	CorrectCommission	0.227959	0.618642	1	0	3.090000e+01
363.027008	1.332888	city	9	1	1.258635	1.258635	0	1	0	0	CorrectCommission	0.028715	0.643175	1	0	3.080000e+01
364.339996	1.293085	mountain	10	0	0.000000	0.971068	1	0	0	0	CorrectOmission	0.841046	0.668135	1	0	3.070000e+01
365.632965	1.292896	city	7	1	0.716143	0.716143	0	1	0	0	CorrectCommission	1.612079	0.691376	1	0	3.060000e+01
366.945892	1.332905	city	10	1	0.898932	0.898932	0	1	0	0	CorrectCommission	1.059224	0.711068	1	0	3.050000e+01
368.285370	1.346066	city	8	1	1.035614	1.035614	0	1	0	0	CorrectCommission	0.645822	0.725850	1	0	3.040000e+01
369.618286	1.319752	city	6	1	0.987931	0.987931	0	1	0	0	CorrectCommission	0.790043	0.734872	1	0	3.030000e+01
370.917847	1.279390	city	1	1	1.054454	1.054454	0	1	0	0	CorrectCommission	0.588840	0.737811	1	0	3.020000e+01
372.230713	1.346362	city	5	1	1.031118	1.031118	0	1	0	0	CorrectCommission	0.659420	0.734926	1	0	3.010000e+01
373.563690	1.319590	city	8	1	0.954998	0.954998	0	1	0	0	CorrectCommission	0.889650	0.727020	1	0	30
374.883240	1.319491	city	7	1	0.915172	0.915172	0	1	0	0	CorrectCommission	1.010107	0.715396	1	0	2.990000e+01
376.216125	1.346309	mountain	10	1	0.973160	0.973160	0	0	1	0	CommissionError	0.834719	0.701757	1	0	2.980000e+01
377.562408	1.346204	city	4	1	1.023960	1.023960	0	1	0	0	CorrectCommission	0.681070	0.688094	1	0	2.970000e+01
378.895233	1.319449	city	6	1	0.997770	0.997770	0	1	0	0	CorrectCommission	0.760283	0.676489	1	0	2.960000e+01
380.208099	1.306331	city	2	1	0.903925	0.903925	0	1	0	0	CorrectCommission	1.044124	0.668876	1	0	2.950000e+01
381.527649	1.332751	city	9	1	1.211647	1.211647	0	1	0	0	CorrectCommission	0.113403	0.666786	1	0	2.940000e+01
382.867218	1.346408	city	5	1	1.219797	1.219797	0	1	0	0	CorrectCommission	0.088752	0.671135	1	0	2.930000e+01
384.220184	1.359510	city	8	1	1.268137	1.268137	0	1	0	0	CorrectCommission	0.057456	0.682006	1	0	2.920000e+01
385.546326	1.292780	city	4	1	1.345464	1.345464	0	1	0	0	CorrectCommission	0.291334	0.698593	1	0	2.910000e+01
386.859253	1.333059	city	3	1	1.158258	1.158258	0	1	0	0	CorrectCommission	0.274880	0.719261	1	0	29
388.172150	1.292744	city	6	1	0.833395	0.833395	0	1	0	0	CorrectCommission	1.257445	0.741728	1	0	2.890000e+01
389.478302	1.319566	city	5	1	0.651749	0.651749	0	1	0	0	CorrectCommission	1.806841	0.763339	1	0	2.880000e+01
390.791290	1.306402	city	10	1	1.619393	1.619393	0	1	0	0	CorrectCommission	1.119845	0.781415	1	0	2.870000e+01
392.090881	1.292761	city	2	1	1.335521	1.335521	0	1	0	0	CorrectCommission	0.261261	0.793592	1	0	2.860000e+01
393.423798	1.373076	city	5	1	0.936945	0.936945	0	1	0	0	CorrectCommission	0.944253	0.798058	1	0	2.850000e+01
394.783417	1.346180	city	2	1	1.794472	1.794472	0	1	0	0	CorrectCommission	1.649382	0.793684	1	0	2.840000e+01
396.109558	1.306069	city	1	1	1.448230	1.448230	0	1	0	0	CorrectCommission	0.602155	0.780155	1	0	2.830000e+01
397.429016	1.332884	city	3	1	1.293684	1.293684	0	1	0	0	CorrectCommission	0.134723	0.758011	1	0	2.820000e+01
398.748657	1.306390	city	5	1	0.847712	0.847712	0	1	0	0	CorrectCommission	1.214142	0.728513	1	0	2.810000e+01
403.153900	7.504068	break	0	1	0.677480	0.677480	0	0	0	0	ThoughtProbe	1.729017	0.693498	1	28	28
407.565704	1.319552	city	10	1	1.429626	1.429626	0	1	0	0	CorrectCommission	0.545888	0.655233	1	0	2.786957e+01
408.911926	1.372908	city	1	1	1.323176	1.323176	0	1	0	0	CorrectCommission	0.223924	0.616230	1	0	2.773913e+01
410.238190	1.279588	city	5	1	1.393543	1.393543	0	1	0	0	CorrectCommission	0.436752	0.578990	1	0	2.760870e+01
411.524506	1.293048	city	4	1	1.328489	1.328489	0	1	0	0	CorrectCommission	0.239992	0.545759	1	0	2.747826e+01
412.857452	1.372852	city	6	1	1.274011	1.274011	0	1	0	0	CorrectCommission	0.075220	0.518402	1	0	2.734783e+01
414.210266	1.332814	city	4	1	1.185220	1.185220	0	1	0	0	CorrectCommission	0.193333	0.498263	1	0	2.721739e+01
415.543182	1.333011	city	5	1	1.099208	1.099208	0	1	0	0	CorrectCommission	0.453479	0.486075	1	0	2.708696e+01
416.882782	1.346181	city	3	1	0.975585	0.975585	0	1	0	0	CorrectCommission	0.827385	0.481996	1	0	2.695652e+01
418.195648	1.279551	city	2	1	1.053791	1.053791	0	1	0	0	CorrectCommission	0.590847	0.485641	1	0	2.682609e+01
419.475250	1.279616	mountain	7	0	0.000000	1.218341	1	0	0	0	CorrectOmission	0.093157	0.496161	1	0	2.669565e+01
420.761505	1.292907	city	5	1	1.319839	1.319839	0	1	0	0	CorrectCommission	0.213831	0.512333	1	0	2.656522e+01
422.061066	1.306238	mountain	6	0	0.000000	1.208892	1	0	0	0	CorrectOmission	0.121736	0.532681	1	0	2.643478e+01
423.373993	1.319596	city	9	1	1.024510	1.024510	0	1	0	0	CorrectCommission	0.679407	0.555619	1	0	2.630435e+01
424.713562	1.359551	city	6	1	0.905708	0.905708	0	1	0	0	CorrectCommission	1.038732	0.579580	1	0	2.617391e+01
426.059784	1.332918	city	8	1	0.981278	0.981278	0	1	0	0	CorrectCommission	0.810165	0.603199	1	0	2.604348e+01
427.392700	1.332879	city	7	1	1.132462	1.132462	0	1	0	0	CorrectCommission	0.352902	0.625451	1	0	2.591304e+01
428.705536	1.292835	city	8	1	1.502058	1.502058	0	1	0	0	CorrectCommission	0.764960	0.645717	1	0	2.578261e+01
430.011780	1.319633	mountain	3	0	0.000000	1.586023	1	0	0	0	CorrectOmission	1.018917	0.663841	1	0	2.565217e+01
431.311401	1.279570	city	9	1	1.501852	1.501852	0	1	0	0	CorrectCommission	0.764338	0.680178	1	0	2.552174e+01
432.644318	1.386285	city	5	1	1.367040	1.367040	0	1	0	0	CorrectCommission	0.356592	0.695498	1	0	2.539130e+01
433.983826	1.292747	city	6	1	1.471823	1.471823	0	1	0	0	CorrectCommission	0.673515	0.710825	1	0	2.526087e+01
435.303284	1.346180	city	7	1	1.807740	1.807740	0	1	0	0	CorrectCommission	1.689511	0.727261	1	0	2.513043e+01
436.682800	1.412811	city	8	1	1.289960	1.289960	0	1	0	0	CorrectCommission	0.123458	0.745803	1	0	25
438.069000	1.359589	city	5	1	1.135997	1.135997	0	1	0	0	CorrectCommission	0.342209	0.767190	1	0	2.486957e+01
439.415253	1.332958	city	2	1	1.060363	1.060363	0	1	0	0	CorrectCommission	0.570967	0.791669	1	0	2.473913e+01
440.761536	1.359604	city	9	1	1.194261	1.194261	0	1	0	0	CorrectCommission	0.165986	0.818962	0	0	2.460870e+01
442.087830	1.292942	city	5	1	1.515393	1.515393	0	1	0	0	CorrectCommission	0.805292	0.848305	0	0	2.447826e+01
443.393982	1.319387	city	7	1	1.760209	1.760209	0	1	0	0	CorrectCommission	1.545752	0.878540	0	0	2.434783e+01
444.713531	1.319741	mountain	6	0	0.000000	1.715343	1	0	0	0	CorrectOmission	1.410052	0.908341	0	0	2.421739e+01
446.026459	1.306064	city	2	1	1.453340	1.453340	0	1	0	0	CorrectCommission	0.617611	0.936472	0	0	2.408696e+01
447.339355	1.319755	city	6	1	1.046746	1.046746	0	1	0	0	CorrectCommission	0.612154	0.961975	0	0	2.395652e+01
448.665619	1.332764	city	2	1	0.862501	0.862501	0	1	0	0	CorrectCommission	1.169413	0.984326	0	0	2.382609e+01
449.991852	1.319699	city	5	1	0.754529	0.754529	0	1	0	0	CorrectCommission	1.495978	1.003462	0	0	2.369565e+01
451.311462	1.319510	city	1	1	0.633728	0.633728	0	1	0	0	CorrectCommission	1.861347	1.019736	0	0	2.356522e+01
452.650909	1.359416	city	6	1	1.690782	1.690782	0	1	0	0	CorrectCommission	1.335767	1.033720	0	0	2.343478e+01
454.010406	1.359572	city	8	1	1.257511	1.257511	0	1	0	0	CorrectCommission	0.025316	1.045969	0	0	2.330435e+01
455.370056	1.359717	city	4	1	1.144214	1.144214	0	1	0	0	CorrectCommission	0.317357	1.056717	0	0	2.317391e+01
456.709656	1.319476	city	1	1	1.796344	1.796344	0	1	0	0	CorrectCommission	1.655045	1.065660	0	0	2.304348e+01
458.042542	1.346327	city	9	1	1.617913	1.617913	0	1	0	0	CorrectCommission	1.115371	1.071830	0	0	2.291304e+01
459.388763	1.346088	city	5	1	1.260638	1.260638	0	1	0	0	CorrectCommission	0.034773	1.073716	0	0	2.278261e+01
460.721588	1.319598	city	1	1	1.013216	1.013216	0	1	0	0	CorrectCommission	0.713567	1.069486	0	0	2.265217e+01
462.047882	1.332957	city	9	1	1.764867	1.764867	0	1	0	0	CorrectCommission	1.559840	1.057356	0	0	2.252174e+01
463.367432	1.306159	city	7	1	1.980079	1.980079	0	1	0	0	CorrectCommission	2.210759	1.036067	0	0	2.239130e+01
464.693665	1.346308	city	10	1	2.036456	2.036456	0	1	0	0	CorrectCommission	2.381274	1.005296	0	0	2.226087e+01
466.053284	1.372915	city	2	1	1.815637	1.815637	0	1	0	0	CorrectCommission	1.713398	0.965955	0	0	2.213043e+01
466.739746	8.370410	break	0	0	0.000000	1.483145	0	0	0	0	ThoughtProbe	0.707757	0.920221	0	22	22
475.803345	1.386373	city	9	1	1.209872	1.209872	0	1	0	0	CorrectCommission	0.118771	0.871316	0	0	2.170588e+01
477.156219	1.319385	city	1	1	1.166713	1.166713	0	1	0	0	CorrectCommission	0.249308	0.823103	0	0	2.141176e+01
478.469055	1.306285	city	2	1	0.846993	0.846993	0	1	0	0	CorrectCommission	1.216317	0.779563	1	0	2.111765e+01
479.768707	1.293016	city	4	1	1.177800	1.177800	0	1	0	0	CorrectCommission	0.215773	0.744211	1	0	2.082353e+01
481.088348	1.346263	city	7	1	1.274600	1.274600	0	1	0	0	CorrectCommission	0.077004	0.719692	1	0	2.052941e+01
482.414581	1.306226	city	8	1	1.246204	1.246204	0	1	0	0	CorrectCommission	0.008882	0.707414	1	0	2.023529e+01
483.747467	1.359513	city	5	1	1.262337	1.262337	0	1	0	0	CorrectCommission	0.039912	0.707458	1	0	1.994118e+01
485.073608	1.292786	mountain	8	0	0.000000	1.525700	1	0	0	0	CorrectOmission	0.836467	0.718705	1	0	1.964706e+01
486.379852	1.319729	city	4	1	1.635872	1.635872	0	1	0	0	CorrectCommission	1.169687	0.739117	1	0	1.935294e+01
487.719421	1.359362	city	9	1	1.192430	1.192430	0	1	0	0	CorrectCommission	0.171526	0.766182	1	0	1.905882e+01
489.065643	1.333081	city	3	1	1.666383	1.666383	0	1	0	0	CorrectCommission	1.261972	0.797345	1	0	1.876471e+01
490.405273	1.346199	city	8	1	1.869175	1.869175	0	1	0	0	CorrectCommission	1.875325	0.830335	0	0	1.847059e+01
491.751495	1.346275	city	7	1	1.718880	1.718880	0	1	0	0	CorrectCommission	1.420751	0.863446	0	0	1.817647e+01
493.084381	1.319470	city	9	1	1.399087	1.399087	0	1	0	0	CorrectCommission	0.453519	0.895631	0	0	1.788235e+01
494.403839	1.319446	city	1	1	1.328685	1.328685	0	1	0	0	CorrectCommission	0.240585	0.926473	0	0	1.758824e+01
495.730103	1.333101	city	4	1	1.191838	1.191838	0	1	0	0	CorrectCommission	0.173315	0.956021	0	0	1.729412e+01
497.056427	1.319552	city	2	1	0.821715	0.821715	0	1	0	0	CorrectCommission	1.292773	0.984586	0	0	17
498.389221	1.346031	city	3	1	0.783909	0.783909	0	1	0	0	CorrectCommission	1.407119	1.012513	0	0	1.670588e+01
499.728699	1.332895	city	9	1	0.643866	0.643866	0	1	0	0	CorrectCommission	1.830686	1.040063	0	0	1.641176e+01
501.061676	1.333066	city	3	1	1.543103	1.543103	0	1	0	0	CorrectCommission	0.889105	1.067275	0	0	1.611765e+01
502.427887	1.399369	city	5	1	1.223216	1.223216	0	1	0	0	CorrectCommission	0.078411	1.093977	0	0	1.582353e+01
503.800690	1.346237	city	2	1	0.875699	0.875699	0	1	0	0	CorrectCommission	1.129494	1.119743	0	0	1.552941e+01
505.140350	1.333072	city	9	1	0.761033	0.761033	0	1	0	0	CorrectCommission	1.476309	1.143903	0	0	1.523529e+01
506.493317	1.372856	city	5	1	1.837601	1.837601	0	1	0	0	CorrectCommission	1.779829	1.165627	0	0	1.494118e+01
507.846100	1.332731	mountain	3	0	0.000000	1.659806	1	0	0	0	CorrectOmission	1.242078	1.183983	0	0	1.464706e+01
509.198975	1.373039	city	6	1	1.069666	1.069666	0	1	0	0	CorrectCommission	0.542830	1.198089	0	0	1.435294e+01
510.551971	1.332914	city	10	1	0.909200	0.909200	0	1	0	0	CorrectCommission	1.028167	1.207189	0	0	1.405882e+01
511.898102	1.359385	city	5	1	0.798701	0.798701	0	1	0	0	CorrectCommission	1.362378	1.210758	0	0	1.376471e+01
513.231018	1.306387	city	8	1	0.484885	0.484885	0	1	0	0	CorrectCommission	2.311532	1.208583	0	0	1.347059e+01
514.550598	1.332790	city	2	1	1.789624	1.789624	0	1	0	0	CorrectCommission	1.634718	1.200800	0	0	1.317647e+01
515.896729	1.359542	city	8	1	1.609563	1.609563	0	1	0	0	CorrectCommission	1.090115	1.187957	0	0	1.288235e+01
517.289612	1.426153	city	5	1	1.061521	1.061521	0	1	0	0	CorrectCommission	0.567466	1.170972	0	0	1.258824e+01
518.662537	1.319760	city	9	1	0.963657	0.963657	0	1	0	0	CorrectCommission	0.863460	1.151060	0	0	1.229412e+01
523.154480	7.664089	break	0	0	0.875656	0.875656	0	0	0	0	ThoughtProbe	1.129625	1.129625	0	12	12
