onset	duration	trial_type	image_type	Press	ReactionTime	ReactionTime_Interpolated	CorrectOmission	CorrectCommission	CommissionError	OmissionError	response_type	nonsmoothVarianceTimeCourse	VarianceTimeCourse	In_the_Zone	ThoughtProbe	ThoughtProbe_Interpolated
0.652855	1.279697	city	9	1	1.733060	1.733060	0	1	0	0	CorrectCommission	2.222885	2.222885	0	0	40
1.932488	1.279568	city	8	1	1.477650	1.477650	0	1	0	0	CorrectCommission	1.117624	2.068695	0	0	40
3.225383	1.306222	city	7	1	1.329298	1.329298	0	1	0	0	CorrectCommission	0.475647	1.919723	0	0	40
4.518210	1.279431	city	2	1	1.031612	1.031612	0	1	0	0	CorrectCommission	0.812561	1.780366	0	0	40
5.797724	1.279598	city	4	1	1.250143	1.250143	0	1	0	0	CorrectCommission	0.133111	1.653544	0	0	40
7.077381	1.279715	city	5	1	1.017656	1.017656	0	1	0	0	CorrectCommission	0.872951	1.540465	0	0	40
8.357025	1.279572	city	3	1	1.495106	1.495106	0	1	0	0	CorrectCommission	1.193161	1.440633	0	0	40
9.636600	1.279579	city	5	1	1.725722	1.725722	0	1	0	0	CorrectCommission	2.191129	1.352273	0	0	40
10.922846	1.292913	mountain	9	1	2.099620	2.099620	0	0	1	0	CommissionError	3.809136	1.272898	0	0	40
12.209089	1.279574	city	6	1	1.472020	1.472020	0	1	0	0	CorrectCommission	1.093260	1.199953	0	0	40
13.495332	1.292912	city	4	1	1.141249	1.141249	0	1	0	0	CorrectCommission	0.338116	1.131403	0	0	40
14.781597	1.279619	mountain	3	0	0.000000	0.996188	1	0	0	0	CorrectOmission	0.965855	1.065985	0	0	40
16.061108	1.279400	mountain	9	1	1.043997	1.043997	0	0	1	0	CommissionError	0.758964	1.003282	0	0	40
17.340586	1.279558	city	5	1	1.291839	1.291839	0	1	0	0	CorrectCommission	0.313547	0.943704	0	0	40
18.620159	1.279588	city	9	1	1.018185	1.018185	0	1	0	0	CorrectCommission	0.870666	0.888306	0	0	40
19.899771	1.279636	city	4	1	1.046009	1.046009	0	1	0	0	CorrectCommission	0.750261	0.838427	0	0	40
21.192760	1.306344	city	2	1	0.995433	0.995433	0	1	0	0	CorrectCommission	0.969119	0.795500	0	0	40
22.499043	1.306220	city	1	1	0.937440	0.937440	0	1	0	0	CorrectCommission	1.220081	0.760845	1	0	40
23.791941	1.279574	city	3	1	1.188815	1.188815	0	1	0	0	CorrectCommission	0.132279	0.735476	1	0	40
25.071520	1.279583	city	8	1	1.074288	1.074288	0	1	0	0	CorrectCommission	0.627884	0.720032	1	0	40
26.351109	1.279597	city	6	1	1.142033	1.142033	0	1	0	0	CorrectCommission	0.334724	0.714640	1	0	40
27.637362	1.292908	city	1	1	1.113975	1.113975	0	1	0	0	CorrectCommission	0.456141	0.718904	1	0	40
28.936935	1.306237	city	7	1	1.311354	1.311354	0	1	0	0	CorrectCommission	0.397995	0.731904	1	0	40
30.229847	1.279588	city	9	1	1.082295	1.082295	0	1	0	0	CorrectCommission	0.593236	0.752276	1	0	40
31.516014	1.292746	city	7	1	1.068838	1.068838	0	1	0	0	CorrectCommission	0.651467	0.778312	1	0	40
32.802242	1.279714	city	10	1	0.968802	0.968802	0	1	0	0	CorrectCommission	1.084366	0.808116	0	0	40
34.088566	1.292931	city	9	1	0.940086	0.940086	0	1	0	0	CorrectCommission	1.208631	0.839753	0	0	40
35.374775	1.279490	city	7	1	1.132564	1.132564	0	1	0	0	CorrectCommission	0.375702	0.871445	0	0	40
36.654343	1.279645	city	1	1	0.816758	0.816758	0	1	0	0	CorrectCommission	1.742318	0.901706	0	0	40
37.933956	1.279581	city	7	1	1.289070	1.289070	0	1	0	0	CorrectCommission	0.301561	0.929373	0	0	40
39.213474	1.279452	city	3	1	0.924782	0.924782	0	1	0	0	CorrectCommission	1.274855	0.953713	0	0	40
40.493050	1.279703	city	6	1	0.964252	0.964252	0	1	0	0	CorrectCommission	1.104055	0.974338	0	0	40
41.772568	1.279335	city	7	1	0.928361	0.928361	0	1	0	0	CorrectCommission	1.259369	0.991168	0	0	40
43.052158	1.279846	city	6	1	0.868727	0.868727	0	1	0	0	CorrectCommission	1.517427	1.004268	0	0	40
44.331829	1.279494	mountain	6	0	0.000000	1.052368	1	0	0	0	CorrectOmission	0.722742	1.013712	0	0	40
45.611359	1.279563	city	3	1	1.184940	1.184940	0	1	0	0	CorrectCommission	0.149051	1.019542	0	0	40
46.890896	1.279513	city	10	1	0.972100	0.972100	0	1	0	0	CorrectCommission	1.070091	1.021674	0	0	40
48.203754	1.346206	city	5	1	0.986575	0.986575	0	1	0	0	CorrectCommission	1.007453	1.019960	0	0	40
49.516685	1.279654	city	4	1	1.025148	1.025148	0	1	0	0	CorrectCommission	0.840535	1.014362	0	0	40
50.809612	1.306201	city	8	1	0.697621	0.697621	0	1	0	0	CorrectCommission	2.257874	1.005099	0	0	40
52.102581	1.279739	city	6	1	0.916374	0.916374	0	1	0	0	CorrectCommission	1.311240	0.992800	0	0	40
53.382236	1.279565	city	7	1	1.052504	1.052504	0	1	0	0	CorrectCommission	0.722152	0.978646	0	0	40
54.661732	1.279426	city	3	1	1.016817	1.016817	0	1	0	0	CorrectCommission	0.876583	0.964307	0	0	40
55.941288	1.279687	city	1	1	1.025957	1.025957	0	1	0	0	CorrectCommission	0.837030	0.951771	0	0	40
57.220863	1.279465	city	7	1	0.862165	0.862165	0	1	0	0	CorrectCommission	1.545824	0.943079	0	0	40
57.860596	9.090455	break	0	1	1.178488	1.178488	0	0	0	0	ThoughtProbe	0.176967	0.939944	0	40	40
67.590851	1.279609	city	6	1	1.450355	1.450355	0	1	0	0	CorrectCommission	0.999508	0.943424	0	0	3.997059e+01
68.870438	1.279561	city	1	1	1.308840	1.308840	0	1	0	0	CorrectCommission	0.387117	0.953583	0	0	3.994118e+01
70.163277	1.306107	city	6	1	1.169969	1.169969	0	1	0	0	CorrectCommission	0.213837	0.969396	0	0	3.991176e+01
71.456184	1.279719	city	1	1	1.343201	1.343201	0	1	0	0	CorrectCommission	0.535810	0.988811	0	0	3.988235e+01
72.782501	1.372907	city	6	1	1.165144	1.165144	0	1	0	0	CorrectCommission	0.234714	1.008988	0	0	3.985294e+01
74.115356	1.292808	mountain	2	0	0.000000	1.487113	1	0	0	0	CorrectOmission	1.158575	1.026871	0	0	3.982353e+01
75.401604	1.279685	city	7	1	1.828781	1.828781	0	1	0	0	CorrectCommission	2.637106	1.039646	0	0	3.979412e+01
76.681236	1.279578	city	3	1	1.709818	1.709818	0	1	0	0	CorrectCommission	2.122306	1.045307	0	0	3.976471e+01
77.960815	1.279580	city	4	1	1.814635	1.814635	0	1	0	0	CorrectCommission	2.575893	1.043087	0	0	3.973529e+01
79.260391	1.319570	city	5	0	0.000000	1.449702	0	0	0	1	OmissionError	0.996682	1.033477	0	0	3.970588e+01
80.599937	1.359522	city	1	1	1.103195	1.103195	0	1	0	0	CorrectCommission	0.502790	1.018167	0	0	3.967647e+01
81.926079	1.292774	city	4	1	1.263292	1.263292	0	1	0	0	CorrectCommission	0.190013	0.999573	0	0	3.964706e+01
83.212334	1.279736	city	3	1	1.151055	1.151055	0	1	0	0	CorrectCommission	0.295683	0.980318	0	0	3.961765e+01
84.498611	1.292809	city	7	1	1.133081	1.133081	0	1	0	0	CorrectCommission	0.373462	0.962718	0	0	3.958824e+01
85.784851	1.279681	city	8	1	1.036504	1.036504	0	1	0	0	CorrectCommission	0.791392	0.948353	0	0	3.955882e+01
87.064430	1.279473	city	5	1	1.461452	1.461452	0	1	0	0	CorrectCommission	1.047530	0.937846	0	0	3.952941e+01
88.344009	1.279687	mountain	4	0	0.000000	1.524254	1	0	0	0	CorrectOmission	1.319297	0.930923	0	0	3.950000e+01
89.623627	1.279552	city	2	1	1.454273	1.454273	0	1	0	0	CorrectCommission	1.016464	0.926581	0	0	3.947059e+01
90.916527	1.306237	city	6	1	1.480876	1.480876	0	1	0	0	CorrectCommission	1.131583	0.923406	0	0	3.944118e+01
92.209435	1.279581	city	5	0	0.000000	1.182023	0	0	0	1	OmissionError	0.161670	0.919933	0	0	3.941176e+01
93.488991	1.279531	city	2	1	0.870020	0.870020	0	1	0	0	CorrectCommission	1.511834	0.914981	0	0	3.938235e+01
94.768570	1.279628	city	9	1	0.857169	0.857169	0	1	0	0	CorrectCommission	1.567446	0.907853	0	0	3.935294e+01
96.048096	1.279429	city	1	1	0.974639	0.974639	0	1	0	0	CorrectCommission	1.059107	0.898459	0	0	3.932353e+01
97.327606	1.279588	city	4	1	1.085559	1.085559	0	1	0	0	CorrectCommission	0.579110	0.887309	0	0	3.929412e+01
98.620598	1.306390	city	9	1	0.936310	0.936310	0	1	0	0	CorrectCommission	1.224968	0.875324	0	0	3.926471e+01
99.913582	1.279584	city	5	1	1.356289	1.356289	0	1	0	0	CorrectCommission	0.592447	0.863566	0	0	3.923529e+01
101.206505	1.306264	city	9	1	1.161460	1.161460	0	1	0	0	CorrectCommission	0.250657	0.853035	0	0	3.920588e+01
102.532730	1.346181	city	10	1	1.014793	1.014793	0	1	0	0	CorrectCommission	0.885342	0.844391	0	0	3.917647e+01
103.845619	1.279591	city	3	1	1.284218	1.284218	0	1	0	0	CorrectCommission	0.280565	0.837772	0	0	3.914706e+01
105.131775	1.292730	city	8	1	1.043970	1.043970	0	1	0	0	CorrectCommission	0.759082	0.832819	0	0	3.911765e+01
106.431259	1.306240	city	7	1	1.021647	1.021647	0	1	0	0	CorrectCommission	0.855683	0.828665	0	0	3.908824e+01
107.730949	1.293131	city	9	1	0.865254	0.865254	0	1	0	0	CorrectCommission	1.532459	0.824152	0	0	3.905882e+01
109.017273	1.279518	city	1	1	0.802822	0.802822	0	1	0	0	CorrectCommission	1.802624	0.818000	0	0	3.902941e+01
109.657028	9.116992	break	0	1	1.201795	1.201795	0	0	0	0	ThoughtProbe	0.076111	0.809002	0	39	39
119.433762	1.319477	city	1	1	1.220270	1.220270	0	1	0	0	CorrectCommission	0.003840	0.796276	0	0	3.980435e+01
120.740005	1.293007	city	7	1	0.939092	0.939092	0	1	0	0	CorrectCommission	1.212930	0.779320	1	0	4.060870e+01
122.026283	1.279549	city	8	1	0.946016	0.946016	0	1	0	0	CorrectCommission	1.182970	0.758102	1	0	4.141304e+01
123.319107	1.306100	city	3	1	1.046262	1.046262	0	1	0	0	CorrectCommission	0.749163	0.733133	1	0	4.221739e+01
124.612030	1.279744	city	5	1	0.979069	0.979069	0	1	0	0	CorrectCommission	1.039933	0.705457	1	0	4.302174e+01
125.891609	1.279418	city	8	1	0.987981	0.987981	0	1	0	0	CorrectCommission	1.001369	0.676535	1	0	4.382609e+01
127.191093	1.319560	city	9	1	1.058301	1.058301	0	1	0	0	CorrectCommission	0.697065	0.648142	1	0	4.463043e+01
128.490753	1.279763	city	3	1	1.201202	1.201202	0	1	0	0	CorrectCommission	0.078675	0.622205	1	0	4.543478e+01
129.777084	1.292889	city	1	1	1.124024	1.124024	0	1	0	0	CorrectCommission	0.412655	0.600595	1	0	4.623913e+01
131.069992	1.292938	city	3	1	1.258953	1.258953	0	1	0	0	CorrectCommission	0.171236	0.584924	1	0	4.704348e+01
132.356247	1.279548	city	10	1	1.183794	1.183794	0	1	0	0	CorrectCommission	0.154008	0.576474	1	0	4.784783e+01
133.642487	1.292934	city	3	1	1.159657	1.159657	0	1	0	0	CorrectCommission	0.258458	0.576085	1	0	4.865217e+01
134.935394	1.292886	city	8	1	0.998593	0.998593	0	1	0	0	CorrectCommission	0.955446	0.584093	1	0	4.945652e+01
136.228302	1.292924	mountain	9	0	0.000000	0.967268	1	0	0	0	CorrectOmission	1.091002	0.600373	1	0	5.026087e+01
137.521210	1.292887	city	10	1	1.049212	1.049212	0	1	0	0	CorrectCommission	0.736398	0.624345	1	0	5.106522e+01
138.827423	1.319566	city	3	1	1.227956	1.227956	0	1	0	0	CorrectCommission	0.037097	0.654991	1	0	5.186957e+01
140.127014	1.279612	city	7	1	1.231716	1.231716	0	1	0	0	CorrectCommission	0.053369	0.690893	1	0	5.267391e+01
141.413254	1.292870	city	3	1	1.038776	1.038776	0	1	0	0	CorrectCommission	0.781557	0.730252	1	0	5.347826e+01
142.699402	1.279430	mountain	2	0	0.000000	1.231312	1	0	0	0	CorrectOmission	0.051623	0.770971	1	0	5.428261e+01
143.978943	1.279625	city	6	1	1.525053	1.525053	0	1	0	0	CorrectCommission	1.322754	0.810778	0	0	5.508696e+01
145.265259	1.293029	mountain	5	0	0.000000	1.635726	1	0	0	0	CorrectOmission	1.801681	0.847343	0	0	5.589130e+01
146.551483	1.279400	city	2	1	1.529141	1.529141	0	1	0	0	CorrectCommission	1.340444	0.878550	0	0	5.669565e+01
147.851013	1.319660	city	8	1	1.171105	1.171105	0	1	0	0	CorrectCommission	0.208918	0.902642	0	0	5.750000e+01
149.150665	1.279652	city	9	1	0.974097	0.974097	0	1	0	0	CorrectCommission	1.061452	0.918411	0	0	5.830435e+01
150.430283	1.279577	city	1	1	0.976458	0.976458	0	1	0	0	CorrectCommission	1.051234	0.925268	0	0	5.910870e+01
151.723206	1.306265	city	3	1	0.885112	0.885112	0	1	0	0	CorrectCommission	1.446525	0.923402	0	0	5.991304e+01
153.022690	1.292723	city	1	1	0.943833	0.943833	0	1	0	0	CorrectCommission	1.192416	0.913717	0	0	6.071739e+01
154.322250	1.306395	city	10	1	0.903234	0.903234	0	1	0	0	CorrectCommission	1.368101	0.897817	0	0	6.152174e+01
155.615158	1.279413	city	7	1	1.284446	1.284446	0	1	0	0	CorrectCommission	0.281553	0.877798	0	0	6.232609e+01
156.907990	1.306240	city	6	1	0.986665	0.986665	0	1	0	0	CorrectCommission	1.007065	0.856121	0	0	6.313043e+01
158.200897	1.279590	city	9	1	0.935810	0.935810	0	1	0	0	CorrectCommission	1.227134	0.835210	0	0	6.393478e+01
159.487152	1.292920	city	7	1	1.245543	1.245543	0	1	0	0	CorrectCommission	0.113207	0.817280	0	0	6.473913e+01
160.773483	1.279745	city	9	1	0.985759	0.985759	0	1	0	0	CorrectCommission	1.010983	0.804074	0	0	6.554348e+01
162.053146	1.279579	city	5	1	1.186764	1.186764	0	1	0	0	CorrectCommission	0.141155	0.796609	0	0	6.634783e+01
163.332642	1.279418	city	4	1	1.312305	1.312305	0	1	0	0	CorrectCommission	0.402112	0.795162	0	0	6.715217e+01
164.625565	1.306429	city	9	1	1.228195	1.228195	0	1	0	0	CorrectCommission	0.038135	0.799239	0	0	6.795652e+01
165.918472	1.279389	mountain	4	0	0.000000	1.491194	1	0	0	0	CorrectOmission	1.176233	0.807730	0	0	6.876087e+01
167.198029	1.279714	city	3	1	1.611699	1.611699	0	1	0	0	CorrectCommission	1.697708	0.819076	0	0	6.956522e+01
168.484344	1.292912	city	6	1	1.100112	1.100112	0	1	0	0	CorrectCommission	0.516136	0.831566	0	0	7.036957e+01
169.770538	1.279495	city	10	1	1.017898	1.017898	0	1	0	0	CorrectCommission	0.871906	0.843567	0	0	7.117391e+01
171.050125	1.279662	city	9	1	0.828523	0.828523	0	1	0	0	CorrectCommission	1.691407	0.853651	0	0	7.197826e+01
172.342987	1.306071	city	5	1	1.083718	1.083718	0	1	0	0	CorrectCommission	0.587079	0.860720	0	0	7.278261e+01
173.662567	1.333086	city	6	1	0.949722	0.949722	0	1	0	0	CorrectCommission	1.166929	0.864092	0	0	7.358696e+01
174.975555	1.292873	city	4	1	1.156188	1.156188	0	1	0	0	CorrectCommission	0.273468	0.863393	0	0	7.439130e+01
176.261780	1.279589	city	9	1	1.040271	1.040271	0	1	0	0	CorrectCommission	0.775089	0.858628	0	0	7.519565e+01
180.513733	7.224303	break	0	1	1.179850	1.179850	0	0	0	0	ThoughtProbe	0.171077	0.850053	0	76	76
184.765671	1.279585	city	2	1	1.604313	1.604313	0	1	0	0	CorrectCommission	1.665745	0.838224	0	0	7.482500e+01
186.045242	1.279560	city	5	1	1.044138	1.044138	0	1	0	0	CorrectCommission	0.758354	0.823924	0	0	7.365000e+01
187.331467	1.292875	mountain	3	1	0.650043	0.650043	0	0	1	0	CommissionError	2.463760	0.808247	0	0	7.247500e+01
188.617630	1.279471	city	8	1	1.247558	1.247558	0	1	0	0	CorrectCommission	0.121922	0.792412	1	0	7.130000e+01
189.897156	1.279569	city	5	1	1.093040	1.093040	0	1	0	0	CorrectCommission	0.546736	0.777808	1	0	7.012500e+01
191.176727	1.279575	mountain	9	0	0.000000	1.125780	1	0	0	0	CorrectOmission	0.405056	0.765669	1	0	6.895000e+01
192.456299	1.279586	city	7	1	1.177982	1.177982	0	1	0	0	CorrectCommission	0.179158	0.756987	1	0	6.777500e+01
193.742630	1.293053	city	4	1	1.081850	1.081850	0	1	0	0	CorrectCommission	0.595162	0.752350	1	0	6.660000e+01
195.028946	1.279597	city	1	1	0.978708	0.978708	0	1	0	0	CorrectCommission	1.041497	0.751825	1	0	6.542500e+01
196.308533	1.279584	city	6	1	1.316141	1.316141	0	1	0	0	CorrectCommission	0.418710	0.754951	1	0	6.425000e+01
197.601364	1.306073	city	3	1	1.173147	1.173147	0	1	0	0	CorrectCommission	0.200080	0.760844	1	0	6.307500e+01
198.894272	1.279747	city	4	1	1.458869	1.458869	0	1	0	0	CorrectCommission	1.036352	0.768352	1	0	6.190000e+01
200.180511	1.292718	city	3	1	0.817686	0.817686	0	1	0	0	CorrectCommission	1.738304	0.776164	1	0	6.072500e+01
201.466660	1.279586	city	8	1	1.073180	1.073180	0	1	0	0	CorrectCommission	0.632678	0.783039	1	0	5.955000e+01
202.752914	1.292912	city	6	1	1.000484	1.000484	0	1	0	0	CorrectCommission	0.947262	0.787978	1	0	5.837500e+01
204.039246	1.279744	city	7	1	0.910605	0.910605	0	1	0	0	CorrectCommission	1.336206	0.790202	1	0	5.720000e+01
205.318817	1.279405	city	6	1	1.228707	1.228707	0	1	0	0	CorrectCommission	0.040349	0.789190	1	0	5.602500e+01
206.605026	1.293006	city	9	1	1.091473	1.091473	0	1	0	0	CorrectCommission	0.553517	0.784679	1	0	5.485000e+01
207.891266	1.279486	city	5	1	1.022646	1.022646	0	1	0	0	CorrectCommission	0.851362	0.776547	1	0	5.367500e+01
209.184189	1.306350	city	8	1	1.065098	1.065098	0	1	0	0	CorrectCommission	0.667655	0.764848	1	0	5.250000e+01
210.477173	1.279627	city	7	1	1.025440	1.025440	0	1	0	0	CorrectCommission	0.839269	0.749774	1	0	5.132500e+01
211.756790	1.279601	city	6	1	0.925787	0.925787	0	1	0	0	CorrectCommission	1.270505	0.731735	1	0	5.015000e+01
213.043045	1.292909	city	10	1	0.937033	0.937033	0	1	0	0	CorrectCommission	1.221843	0.711358	1	0	4.897500e+01
214.335938	1.292891	city	2	1	1.043464	1.043464	0	1	0	0	CorrectCommission	0.761272	0.689554	1	0	4.780000e+01
215.622131	1.279482	city	6	1	1.247900	1.247900	0	1	0	0	CorrectCommission	0.123403	0.667485	1	0	4.662500e+01
216.908295	1.292850	city	8	1	1.104531	1.104531	0	1	0	0	CorrectCommission	0.497012	0.646578	1	0	4.545000e+01
218.194534	1.279638	city	5	1	1.144756	1.144756	0	1	0	0	CorrectCommission	0.322941	0.628341	1	0	4.427500e+01
219.474197	1.279691	city	2	1	0.930710	0.930710	0	1	0	0	CorrectCommission	1.249203	0.614312	1	0	4.310000e+01
220.760330	1.292570	city	8	1	1.190801	1.190801	0	1	0	0	CorrectCommission	0.123684	0.605880	1	0	4.192500e+01
222.053238	1.293231	mountain	10	1	1.253546	1.253546	0	0	1	0	CommissionError	0.147835	0.604212	1	0	4.075000e+01
223.339630	1.279572	city	7	1	1.497366	1.497366	0	1	0	0	CorrectCommission	1.202941	0.610056	1	0	3.957500e+01
224.639206	1.319585	city	10	1	1.230630	1.230630	0	1	0	0	CorrectCommission	0.048669	0.623670	1	0	3.840000e+01
225.938690	1.279372	city	8	1	1.145105	1.145105	0	1	0	0	CorrectCommission	0.321429	0.644832	1	0	3.722500e+01
227.218246	1.279737	city	6	1	1.132450	1.132450	0	1	0	0	CorrectCommission	0.376193	0.672745	1	0	3.605000e+01
228.511169	1.306101	city	4	1	1.316402	1.316402	0	1	0	0	CorrectCommission	0.419841	0.706131	1	0	3.487500e+01
229.830673	1.332905	city	9	1	0.903850	0.903850	0	1	0	0	CorrectCommission	1.365436	0.743316	1	0	3.370000e+01
231.136993	1.279735	city	7	0	0.000000	1.100332	0	0	0	1	OmissionError	0.515183	0.782320	1	0	3.252500e+01
232.416565	1.279427	city	5	1	1.453455	1.453455	0	1	0	0	CorrectCommission	1.012922	0.821039	0	0	3.135000e+01
233.702820	1.293083	city	6	1	1.510829	1.510829	0	1	0	0	CorrectCommission	1.261204	0.857362	0	0	3.017500e+01
234.349365	9.210132	break	0	0	0.000000	1.287929	0	0	0	0	ThoughtProbe	0.296625	0.889279	0	29	29
244.206039	1.293074	city	2	1	0.978811	0.978811	0	1	0	0	CorrectCommission	1.041049	0.915041	0	0	2.958824e+01
245.499023	1.292916	city	9	1	0.777535	0.777535	0	1	0	0	CorrectCommission	1.912051	0.933218	0	0	3.017647e+01
246.798508	1.306045	city	5	1	1.059290	1.059290	0	1	0	0	CorrectCommission	0.692786	0.942766	0	0	3.076471e+01
248.104736	1.306402	city	8	1	0.986513	0.986513	0	1	0	0	CorrectCommission	1.007720	0.943159	0	0	3.135294e+01
249.404404	1.292931	city	2	1	0.892266	0.892266	0	1	0	0	CorrectCommission	1.415567	0.934381	0	0	3.194118e+01
250.717316	1.332892	mountain	7	1	1.121648	1.121648	0	0	1	0	CommissionError	0.422939	0.916988	0	0	3.252941e+01
252.023468	1.279415	city	6	1	1.477974	1.477974	0	1	0	0	CorrectCommission	1.119027	0.892130	0	0	3.311765e+01
253.316360	1.306381	city	2	1	1.481532	1.481532	0	1	0	0	CorrectCommission	1.134421	0.861435	0	0	3.370588e+01
254.609344	1.279578	city	7	1	1.566691	1.566691	0	1	0	0	CorrectCommission	1.502938	0.826966	0	0	3.429412e+01
255.895508	1.292766	city	2	1	1.468630	1.468630	0	1	0	0	CorrectCommission	1.078589	0.791037	1	0	3.488235e+01
257.181732	1.279699	city	9	1	1.306732	1.306732	0	1	0	0	CorrectCommission	0.377995	0.756013	1	0	3.547059e+01
258.474701	1.306212	city	5	1	1.258518	1.258518	0	1	0	0	CorrectCommission	0.169350	0.724062	1	0	3.605882e+01
259.774231	1.292819	city	3	1	1.197135	1.197135	0	1	0	0	CorrectCommission	0.096275	0.696863	1	0	3.664706e+01
261.060486	1.279739	city	8	1	1.031583	1.031583	0	1	0	0	CorrectCommission	0.812687	0.675488	1	0	3.723529e+01
262.340057	1.279389	city	7	1	1.155342	1.155342	0	1	0	0	CorrectCommission	0.277132	0.660240	1	0	3.782353e+01
263.626282	1.293073	mountain	3	0	0.000000	1.170567	1	0	0	0	CorrectOmission	0.211248	0.650754	1	0	3.841176e+01
264.919281	1.292932	city	10	1	1.093597	1.093597	0	1	0	0	CorrectCommission	0.544327	0.646095	1	0	39
266.212189	1.292889	city	3	1	0.940772	0.940772	0	1	0	0	CorrectCommission	1.205662	0.644966	1	0	3.958824e+01
267.505035	1.292767	city	1	1	1.087400	1.087400	0	1	0	0	CorrectCommission	0.571145	0.646010	1	0	4.017647e+01
268.804565	1.306323	city	3	1	0.998155	0.998155	0	1	0	0	CorrectCommission	0.957342	0.648086	1	0	4.076471e+01
270.104156	1.292822	city	8	1	0.819771	0.819771	0	1	0	0	CorrectCommission	1.729280	0.650389	1	0	4.135294e+01
271.397095	1.293047	city	4	1	1.207023	1.207023	0	1	0	0	CorrectCommission	0.053486	0.652606	1	0	4.194118e+01
272.703308	1.319431	city	2	1	1.217801	1.217801	0	1	0	0	CorrectCommission	0.006848	0.654943	1	0	4.252941e+01
274.009552	1.293044	city	10	1	1.101042	1.101042	0	1	0	0	CorrectCommission	0.512108	0.657966	1	0	4.311765e+01
275.302490	1.292800	city	4	1	1.478473	1.478473	0	1	0	0	CorrectCommission	1.121185	0.662544	1	0	4.370588e+01
276.588684	1.279624	city	7	1	1.373428	1.373428	0	1	0	0	CorrectCommission	0.666613	0.669684	1	0	4.429412e+01
277.881561	1.306134	city	10	1	1.275664	1.275664	0	1	0	0	CorrectCommission	0.243552	0.680432	1	0	4.488235e+01
279.187775	1.306279	city	9	1	1.207608	1.207608	0	1	0	0	CorrectCommission	0.050956	0.695753	1	0	4.547059e+01
280.480774	1.279700	city	5	1	1.563343	1.563343	0	1	0	0	CorrectCommission	1.488452	0.716412	1	0	4.605882e+01
281.760406	1.279598	city	4	1	1.395548	1.395548	0	1	0	0	CorrectCommission	0.762337	0.742826	1	0	4.664706e+01
283.059998	1.319570	city	8	1	1.008767	1.008767	0	1	0	0	CorrectCommission	0.911421	0.775056	1	0	4.723529e+01
284.366211	1.292880	city	5	1	1.153185	1.153185	0	1	0	0	CorrectCommission	0.286463	0.812613	0	0	4.782353e+01
285.653595	1.281840	city	7	1	1.419524	1.419524	0	1	0	0	CorrectCommission	0.866090	0.854401	0	0	4.841176e+01
286.294495	9.034616	break	0	0	0.000000	1.263695	0	0	0	0	ThoughtProbe	0.191757	0.898651	0	49	49
295.988892	1.319563	city	6	1	1.003675	1.003675	0	1	0	0	CorrectCommission	0.933456	0.942949	0	0	4.925000e+01
297.308472	1.319597	city	8	1	0.957437	0.957437	0	1	0	0	CorrectCommission	1.133543	0.984344	0	0	4.950000e+01
298.621460	1.306372	city	6	1	0.986517	0.986517	0	1	0	0	CorrectCommission	1.007704	1.019637	0	0	4.975000e+01
299.947693	1.346051	city	8	1	1.009631	1.009631	0	1	0	0	CorrectCommission	0.907680	1.045742	0	0	50
301.273895	1.306400	mountain	1	0	0.000000	0.811849	1	0	0	0	CorrectOmission	1.763564	1.060061	0	0	5.025000e+01
302.573517	1.292838	city	8	1	0.887726	0.887726	0	1	0	0	CorrectCommission	1.435213	1.060862	0	0	5.050000e+01
303.859772	1.279676	city	5	1	1.731820	1.731820	0	1	0	0	CorrectCommission	2.217520	1.047639	0	0	5.075000e+01
305.139313	1.279389	city	1	1	1.624298	1.624298	0	1	0	0	CorrectCommission	1.752230	1.021223	0	0	51
306.418884	1.279772	city	10	1	1.552799	1.552799	0	1	0	0	CorrectCommission	1.442825	0.983717	0	0	5.125000e+01
307.718567	1.319560	city	5	1	1.397929	1.397929	0	1	0	0	CorrectCommission	0.772640	0.938280	0	0	5.150000e+01
309.031433	1.306213	city	8	1	1.226499	1.226499	0	1	0	0	CorrectCommission	0.030795	0.888678	0	0	5.175000e+01
310.337585	1.306089	city	4	1	1.142024	1.142024	0	1	0	0	CorrectCommission	0.334763	0.838799	0	0	52
311.637146	1.292995	city	7	1	1.156560	1.156560	0	1	0	0	CorrectCommission	0.271862	0.792158	1	0	5.225000e+01
312.930054	1.292808	city	3	1	0.987708	0.987708	0	1	0	0	CorrectCommission	1.002548	0.751526	1	0	5.250000e+01
314.222931	1.292959	mountain	8	0	0.000000	1.214280	1	0	0	0	CorrectOmission	0.022083	0.718686	1	0	5.275000e+01
315.509186	1.279557	city	6	1	1.458550	1.458550	0	1	0	0	CorrectCommission	1.034972	0.694415	1	0	53
316.808838	1.319751	city	7	1	1.342795	1.342795	0	1	0	0	CorrectCommission	0.534053	0.678435	1	0	5.325000e+01
318.128448	1.319467	mountain	7	1	1.171042	1.171042	0	0	1	0	CommissionError	0.209189	0.669734	1	0	5.350000e+01
319.427979	1.279625	city	8	1	1.575503	1.575503	0	1	0	0	CorrectCommission	1.541072	0.666742	1	0	5.375000e+01
320.714264	1.292911	city	1	1	1.191193	1.191193	0	1	0	0	CorrectCommission	0.121989	0.667599	1	0	54
322.020508	1.319588	city	8	1	1.071503	1.071503	0	1	0	0	CorrectCommission	0.639935	0.670494	1	0	5.425000e+01
323.320068	1.279554	city	9	1	1.292111	1.292111	0	1	0	0	CorrectCommission	0.314725	0.673776	1	0	5.450000e+01
324.626312	1.332895	city	5	1	1.569663	1.569663	0	1	0	0	CorrectCommission	1.515799	0.676180	1	0	5.475000e+01
325.932465	1.279416	city	2	1	1.408645	1.408645	0	1	0	0	CorrectCommission	0.819013	0.676915	1	0	55
327.238708	1.333078	city	5	1	1.317987	1.317987	0	1	0	0	CorrectCommission	0.426697	0.675809	1	0	5.525000e+01
328.558350	1.306236	city	8	1	1.184613	1.184613	0	1	0	0	CorrectCommission	0.150465	0.673299	1	0	5.550000e+01
329.857849	1.292743	city	5	1	1.563867	1.563867	0	1	0	0	CorrectCommission	1.490719	0.670371	1	0	5.575000e+01
331.144073	1.279722	city	1	1	1.348039	1.348039	0	1	0	0	CorrectCommission	0.556746	0.668462	1	0	56
332.443756	1.319624	city	2	1	0.997426	0.997426	0	1	0	0	CorrectCommission	0.960497	0.669330	1	0	5.625000e+01
333.756683	1.306202	city	5	1	1.116106	1.116106	0	1	0	0	CorrectCommission	0.446921	0.674761	1	0	5.650000e+01
335.056122	1.292721	city	9	1	1.265965	1.265965	0	1	0	0	CorrectCommission	0.201577	0.686335	1	0	5.675000e+01
336.342285	1.279588	city	4	1	1.427935	1.427935	0	1	0	0	CorrectCommission	0.902486	0.705110	1	0	57
337.648529	1.332911	city	9	1	1.228946	1.228946	0	1	0	0	CorrectCommission	0.041383	0.731342	1	0	5.725000e+01
338.968140	1.306282	city	2	1	1.293708	1.293708	0	1	0	0	CorrectCommission	0.321632	0.764337	1	0	5.750000e+01
340.267761	1.293004	city	4	1	1.484319	1.484319	0	1	0	0	CorrectCommission	1.146485	0.802348	0	0	5.775000e+01
341.554016	1.279450	city	8	1	1.247625	1.247625	0	1	0	0	CorrectCommission	0.122215	0.842664	0	0	58
342.840210	1.292939	city	2	1	1.389443	1.389443	0	1	0	0	CorrectCommission	0.735917	0.881959	0	0	5.825000e+01
344.146454	1.319547	city	9	1	1.358014	1.358014	0	1	0	0	CorrectCommission	0.599912	0.916610	0	0	5.850000e+01
345.466003	1.319551	city	4	1	1.498727	1.498727	0	1	0	0	CorrectCommission	1.208830	0.943261	0	0	5.875000e+01
346.125763	9.543688	break	0	1	0.495586	0.495586	0	0	0	0	ThoughtProbe	3.132158	0.959286	0	59	59
356.309143	1.279388	city	3	1	1.639108	1.639108	0	1	0	0	CorrectCommission	1.816315	0.963099	0	0	5.879412e+01
357.588715	1.279744	city	8	1	1.481965	1.481965	0	1	0	0	CorrectCommission	1.136294	0.954525	0	0	5.858824e+01
358.881714	1.306261	mountain	6	0	0.000000	1.356926	1	0	0	0	CorrectOmission	0.595204	0.934661	0	0	5.838235e+01
360.187958	1.306217	city	9	1	1.326787	1.326787	0	1	0	0	CorrectCommission	0.464778	0.905708	0	0	5.817647e+01
361.487518	1.292900	city	5	1	1.454340	1.454340	0	1	0	0	CorrectCommission	1.016753	0.870550	0	0	5.797059e+01
362.787018	1.306106	city	1	1	1.368073	1.368073	0	1	0	0	CorrectCommission	0.643438	0.832342	0	0	5.776471e+01
364.099854	1.319563	city	7	1	1.423295	1.423295	0	1	0	0	CorrectCommission	0.882407	0.794034	0	0	5.755882e+01
365.419495	1.319704	city	6	1	1.340932	1.340932	0	1	0	0	CorrectCommission	0.525991	0.758024	1	0	5.735294e+01
366.752441	1.346241	city	2	1	1.185955	1.185955	0	1	0	0	CorrectCommission	0.144657	0.725906	1	0	5.714706e+01
368.085358	1.319569	city	9	1	1.165179	1.165179	0	1	0	0	CorrectCommission	0.234561	0.698447	1	0	5.694118e+01
369.411499	1.332737	city	8	1	1.072797	1.072797	0	1	0	0	CorrectCommission	0.634334	0.675631	1	0	5.673529e+01
370.724396	1.293005	city	2	1	1.017585	1.017585	0	1	0	0	CorrectCommission	0.873259	0.656878	1	0	5.652941e+01
372.017365	1.292969	city	3	1	0.964515	0.964515	0	1	0	0	CorrectCommission	1.102916	0.641322	1	0	5.632353e+01
373.316956	1.306206	city	6	1	0.964656	0.964656	0	1	0	0	CorrectCommission	1.102305	0.628006	1	0	5.611765e+01
374.616425	1.292753	city	1	1	1.348889	1.348889	0	1	0	0	CorrectCommission	0.560425	0.616140	1	0	5.591176e+01
375.936005	1.346385	city	4	1	1.258621	1.258621	0	1	0	0	CorrectCommission	0.169798	0.605218	1	0	5.570588e+01
377.255646	1.292872	city	3	1	1.121528	1.121528	0	1	0	0	CorrectCommission	0.423457	0.595022	1	0	5.550000e+01
378.561890	1.319622	city	8	1	1.054307	1.054307	0	1	0	0	CorrectCommission	0.714351	0.585610	1	0	5.529412e+01
379.881470	1.319549	city	1	1	0.993011	0.993011	0	1	0	0	CorrectCommission	0.979601	0.577223	1	0	5.508824e+01
381.207672	1.332839	city	9	1	1.213817	1.213817	0	1	0	0	CorrectCommission	0.024085	0.570221	1	0	5.488235e+01
382.533905	1.319642	city	1	1	1.324160	1.324160	0	1	0	0	CorrectCommission	0.453413	0.565031	1	0	5.467647e+01
383.833496	1.279550	city	6	1	1.267850	1.267850	0	1	0	0	CorrectCommission	0.209734	0.562051	1	0	5.447059e+01
385.152985	1.359410	city	8	1	1.062832	1.062832	0	1	0	0	CorrectCommission	0.677457	0.561709	1	0	5.426471e+01
386.472473	1.279601	mountain	8	0	0.000000	1.364224	1	0	0	0	CorrectOmission	0.626785	0.564419	1	0	5.405882e+01
387.752106	1.279637	city	7	1	1.599485	1.599485	0	1	0	0	CorrectCommission	1.644851	0.570560	1	0	5.385294e+01
389.045044	1.306227	city	5	1	1.196073	1.196073	0	1	0	0	CorrectCommission	0.100873	0.580382	1	0	5.364706e+01
390.338013	1.279730	city	6	1	1.324701	1.324701	0	1	0	0	CorrectCommission	0.455754	0.593984	1	0	5.344118e+01
391.644287	1.332820	city	9	1	1.157673	1.157673	0	1	0	0	CorrectCommission	0.267043	0.611072	1	0	5.323529e+01
392.957184	1.292939	city	1	1	1.297467	1.297467	0	1	0	0	CorrectCommission	0.337901	0.630916	1	0	5.302941e+01
394.250092	1.292904	city	3	1	1.223112	1.223112	0	1	0	0	CorrectCommission	0.016136	0.652302	1	0	5.282353e+01
395.556305	1.319535	city	9	1	1.129814	1.129814	0	1	0	0	CorrectCommission	0.387602	0.673626	1	0	5.261765e+01
396.869202	1.306242	city	7	1	1.571788	1.571788	0	1	0	0	CorrectCommission	1.524995	0.693021	1	0	5.241176e+01
398.168701	1.292793	city	6	1	1.347600	1.347600	0	1	0	0	CorrectCommission	0.554847	0.708625	1	0	5.220588e+01
398.815125	13.235619	break	0	0	0.000000	1.422595	0	0	0	0	ThoughtProbe	0.879377	0.718936	1	52	52
412.697266	1.293061	city	1	1	1.564813	1.564813	0	1	0	0	CorrectCommission	1.494812	0.723041	1	0	5.186957e+01
413.990173	1.292758	mountain	6	0	0.000000	1.542298	1	0	0	0	CorrectOmission	1.397381	0.720806	1	0	5.173913e+01
415.276367	1.279651	city	10	1	1.449060	1.449060	0	1	0	0	CorrectCommission	0.993903	0.712929	1	0	5.160870e+01
416.562683	1.292977	mountain	6	0	0.000000	1.379109	1	0	0	0	CorrectOmission	0.691198	0.700804	1	0	5.147826e+01
417.862305	1.306240	city	6	1	1.316197	1.316197	0	1	0	0	CorrectCommission	0.418953	0.686241	1	0	5.134783e+01
419.161774	1.292719	city	8	1	1.244076	1.244076	0	1	0	0	CorrectCommission	0.106855	0.671116	1	0	5.121739e+01
420.447937	1.279614	city	7	1	1.322351	1.322351	0	1	0	0	CorrectCommission	0.445585	0.657035	1	0	5.108696e+01
421.774261	1.373035	city	1	1	1.270175	1.270175	0	1	0	0	CorrectCommission	0.219796	0.645047	1	0	5.095652e+01
423.100555	1.279546	city	6	1	1.291211	1.291211	0	1	0	0	CorrectCommission	0.310828	0.635517	1	0	5.082609e+01
424.406738	1.332823	city	5	1	1.255753	1.255753	0	1	0	0	CorrectCommission	0.157385	0.628147	1	0	5.069565e+01
425.712982	1.279679	city	9	1	1.363604	1.363604	0	1	0	0	CorrectCommission	0.624100	0.622138	1	0	5.056522e+01
427.019226	1.332762	city	1	1	1.786230	1.786230	0	1	0	0	CorrectCommission	2.452974	0.616445	1	0	5.043478e+01
428.352020	1.332866	city	9	1	1.444586	1.444586	0	1	0	0	CorrectCommission	0.974545	0.610013	1	0	5.030435e+01
429.678253	1.319565	mountain	9	0	0.000000	1.243397	1	0	0	0	CorrectOmission	0.103920	0.602160	1	0	5.017391e+01
430.984558	1.293077	city	10	1	1.220559	1.220559	0	1	0	0	CorrectCommission	0.005087	0.592580	1	0	5.004348e+01
432.270844	1.279453	city	4	1	1.413965	1.413965	0	1	0	0	CorrectCommission	0.842033	0.581452	1	0	4.991304e+01
433.597076	1.373028	city	8	1	1.060285	1.060285	0	1	0	0	CorrectCommission	0.688482	0.569412	1	0	4.978261e+01
434.930023	1.292885	city	2	1	1.324277	1.324277	0	1	0	0	CorrectCommission	0.453917	0.557501	1	0	4.965217e+01
436.249542	1.346174	city	10	1	1.216733	1.216733	0	1	0	0	CorrectCommission	0.011466	0.547054	1	0	4.952174e+01
437.582367	1.319468	city	3	1	1.380432	1.380432	0	1	0	0	CorrectCommission	0.696921	0.539608	1	0	4.939130e+01
438.908539	1.332878	city	5	0	0.000000	1.424553	0	0	0	1	OmissionError	0.887854	0.536764	1	0	4.926087e+01
440.228119	1.306253	city	2	1	1.338729	1.338729	0	1	0	0	CorrectCommission	0.516457	0.540098	1	0	4.913043e+01
441.554352	1.346239	city	9	1	1.112588	1.112588	0	1	0	0	CorrectCommission	0.462146	0.551011	1	0	49
442.867340	1.279727	city	8	1	1.154156	1.154156	0	1	0	0	CorrectCommission	0.282262	0.570542	1	0	4.886957e+01
444.186981	1.359539	city	4	1	1.179493	1.179493	0	1	0	0	CorrectCommission	0.172621	0.599220	1	0	4.873913e+01
445.513184	1.292867	city	1	1	1.037047	1.037047	0	1	0	0	CorrectCommission	0.789040	0.636867	1	0	4.860870e+01
446.806000	1.292779	city	6	1	1.317224	1.317224	0	1	0	0	CorrectCommission	0.423398	0.682481	1	0	4.847826e+01
448.112274	1.319751	city	1	1	1.267643	1.267643	0	1	0	0	CorrectCommission	0.208841	0.734234	1	0	4.834783e+01
449.411926	1.279560	city	9	1	1.259214	1.259214	0	1	0	0	CorrectCommission	0.172365	0.789527	1	0	4.821739e+01
450.711487	1.319561	city	3	1	1.089630	1.089630	0	1	0	0	CorrectCommission	0.561495	0.845230	0	0	4.808696e+01
452.011047	1.279586	city	5	0	0.000000	1.004206	0	0	0	1	OmissionError	0.931156	0.898046	0	0	4.795652e+01
453.303986	1.306256	city	7	1	0.861156	0.861156	0	1	0	0	CorrectCommission	1.550190	0.944945	0	0	4.782609e+01
454.596832	1.279432	mountain	8	1	0.518691	0.518691	0	0	1	0	CommissionError	3.032173	0.983567	0	0	4.769565e+01
455.883026	1.292995	city	8	1	1.477440	1.477440	0	1	0	0	CorrectCommission	1.116714	1.012498	0	0	4.756522e+01
457.176025	1.292967	city	9	1	1.450223	1.450223	0	1	0	0	CorrectCommission	0.998936	1.031548	0	0	4.743478e+01
458.502258	1.359535	city	4	1	1.571618	1.571618	0	1	0	0	CorrectCommission	1.524262	1.041570	0	0	4.730435e+01
459.828491	1.292925	city	7	1	1.327572	1.327572	0	1	0	0	CorrectCommission	0.468175	1.044247	0	0	4.717391e+01
461.161316	1.372705	city	10	1	1.242650	1.242650	0	1	0	0	CorrectCommission	0.100684	1.041750	0	0	4.704348e+01
462.500793	1.306241	city	1	1	1.583257	1.583257	0	1	0	0	CorrectCommission	1.574625	1.036276	0	0	4.691304e+01
463.827087	1.346375	city	5	1	1.463419	1.463419	0	1	0	0	CorrectCommission	1.056038	1.029640	0	0	4.678261e+01
465.153320	1.306082	city	10	1	1.461091	1.461091	0	1	0	0	CorrectCommission	1.045966	1.023111	0	0	4.665217e+01
466.452911	1.293065	city	6	1	1.460324	1.460324	0	1	0	0	CorrectCommission	1.042649	1.017183	0	0	4.652174e+01
467.792542	1.386238	city	8	1	1.241669	1.241669	0	1	0	0	CorrectCommission	0.096440	1.011662	0	0	4.639130e+01
469.125458	1.279563	city	1	1	1.416743	1.416743	0	1	0	0	CorrectCommission	0.854055	1.005864	0	0	4.626087e+01
470.444946	1.359408	city	3	1	1.417343	1.417343	0	1	0	0	CorrectCommission	0.856650	0.998880	0	0	4.613043e+01
471.124634	13.049197	break	0	0	0.000000	1.590970	0	0	0	0	ThoughtProbe	1.608006	0.989967	0	46	46
484.833527	1.319379	city	1	1	1.724569	1.724569	0	1	0	0	CorrectCommission	2.186142	0.978838	0	0	4.660000e+01
486.159760	1.333061	city	7	1	1.605082	1.605082	0	1	0	0	CorrectCommission	1.669073	0.965858	0	0	4.720000e+01
487.499329	1.346088	city	1	1	1.376745	1.376745	0	1	0	0	CorrectCommission	0.680968	0.952116	0	0	4.780000e+01
488.852234	1.359710	city	9	1	1.110225	1.110225	0	1	0	0	CorrectCommission	0.472370	0.939251	0	0	4.840000e+01
490.171875	1.279580	city	3	1	1.079698	1.079698	0	1	0	0	CorrectCommission	0.604471	0.929121	0	0	49
491.458099	1.292900	mountain	1	0	0.000000	1.178528	1	0	0	0	CorrectOmission	0.176795	0.923421	0	0	4.960000e+01
492.744324	1.279565	mountain	8	0	0.000000	1.326650	1	0	0	0	CorrectOmission	0.464188	0.923314	0	0	5.020000e+01
494.023865	1.279461	city	1	1	1.443999	1.443999	0	1	0	0	CorrectCommission	0.972003	0.929121	0	0	5.080000e+01
495.316681	1.306186	city	3	1	1.450510	1.450510	0	1	0	0	CorrectCommission	1.000176	0.940144	0	0	5.140000e+01
496.636230	1.332921	city	8	1	1.470455	1.470455	0	1	0	0	CorrectCommission	1.086489	0.954734	0	0	52
497.962555	1.319733	city	3	1	1.537168	1.537168	0	1	0	0	CorrectCommission	1.375182	0.970437	0	0	5.260000e+01
499.308777	1.372688	city	9	1	1.302735	1.302735	0	1	0	0	CorrectCommission	0.360699	0.984287	0	0	5.320000e+01
500.668304	1.346410	city	10	1	1.226290	1.226290	0	1	0	0	CorrectCommission	0.029889	0.993268	0	0	5.380000e+01
502.001282	1.319542	city	1	1	1.650229	1.650229	0	1	0	0	CorrectCommission	1.864441	0.994717	0	0	5.440000e+01
503.320801	1.319476	city	2	1	1.610625	1.610625	0	1	0	0	CorrectCommission	1.693061	0.986670	0	0	55
504.633698	1.306311	city	5	1	1.775059	1.775059	0	1	0	0	CorrectCommission	2.404629	0.968267	0	0	5.560000e+01
505.966644	1.359596	city	7	1	1.565502	1.565502	0	1	0	0	CorrectCommission	1.497794	0.939839	0	0	5.620000e+01
507.319550	1.346219	city	3	1	1.433528	1.433528	0	1	0	0	CorrectCommission	0.926691	0.902907	0	0	5.680000e+01
508.639130	1.292917	city	1	1	1.307822	1.307822	0	1	0	0	CorrectCommission	0.382711	0.859927	0	0	5.740000e+01
509.938599	1.306061	city	2	1	1.164350	1.164350	0	1	0	0	CorrectCommission	0.238149	0.813939	0	0	58
511.258087	1.332893	city	5	1	1.190745	1.190745	0	1	0	0	CorrectCommission	0.123930	0.768130	1	0	5.860000e+01
512.577698	1.306378	city	7	1	1.393046	1.393046	0	1	0	0	CorrectCommission	0.751510	0.725428	1	0	5.920000e+01
513.897339	1.332830	mountain	3	0	0.000000	1.405789	1	0	0	0	CorrectOmission	0.806654	0.688166	1	0	5.980000e+01
515.216858	1.306173	city	7	1	1.348272	1.348272	0	1	0	0	CorrectCommission	0.557752	0.657875	1	0	6.040000e+01
516.516479	1.293114	city	5	1	1.339792	1.339792	0	1	0	0	CorrectCommission	0.521057	0.635204	1	0	61
517.849426	1.372835	city	9	1	1.178739	1.178739	0	1	0	0	CorrectCommission	0.175885	0.619902	1	0	6.160000e+01
519.195618	1.319539	city	2	1	1.092261	1.092261	0	1	0	0	CorrectCommission	0.550109	0.610888	1	0	6.220000e+01
520.501831	1.292906	city	9	1	1.009962	1.009962	0	1	0	0	CorrectCommission	0.906248	0.606392	1	0	6.280000e+01
521.814697	1.332763	city	4	1	1.102775	1.102775	0	1	0	0	CorrectCommission	0.504610	0.604109	1	0	6.340000e+01
523.120911	1.279690	city	5	0	0.000000	1.092083	0	0	0	1	OmissionError	0.550879	0.601391	1	0	64
524.427185	1.332796	city	2	1	1.125558	1.125558	0	1	0	0	CorrectCommission	0.406020	0.595432	1	0	6.460000e+01
525.766724	1.346347	city	6	1	1.350872	1.350872	0	1	0	0	CorrectCommission	0.569004	0.583499	1	0	6.520000e+01
527.106262	1.332727	city	5	1	1.426857	1.426857	0	1	0	0	CorrectCommission	0.897822	0.563142	1	0	6.580000e+01
528.439087	1.332925	city	6	1	1.492996	1.492996	0	1	0	0	CorrectCommission	1.184032	0.532450	1	0	6.640000e+01
529.805359	1.399635	city	5	1	1.349673	1.349673	0	1	0	0	CorrectCommission	0.563817	0.490267	1	0	67
531.144958	1.279466	city	8	1	1.392507	1.392507	0	1	0	0	CorrectCommission	0.749177	0.436325	1	0	6.760000e+01
532.444458	1.319652	city	9	1	1.453630	1.453630	0	1	0	0	CorrectCommission	1.013679	0.371344	1	0	6.820000e+01
533.804138	1.399636	city	8	1	1.241976	1.241976	0	1	0	0	CorrectCommission	0.097770	0.297009	1	0	6.880000e+01
535.170410	1.332870	city	10	1	1.032416	1.032416	0	1	0	0	CorrectCommission	0.809081	0.215900	1	0	6.940000e+01
535.836792	8.064156	break	0	0	1.249706	1.249706	0	0	0	0	ThoughtProbe	0.131220	0.131220	1	70	70
