onset	duration	trial_type	image_type	Press	ReactionTime	ReactionTime_Interpolated	CorrectOmission	CorrectCommission	CommissionError	OmissionError	response_type	nonsmoothVarianceTimeCourse	VarianceTimeCourse	In_the_Zone	ThoughtProbe	ThoughtProbe_Interpolated
0.652993	1.279561	city	5	1	1.341101	1.341101	0	1	0	0	CorrectCommission	1.123515	1.123515	0	0	7
1.932565	1.279583	city	7	1	0.961992	0.961992	0	1	0	0	CorrectCommission	0.550407	1.095694	0	0	7
3.212096	1.279480	city	3	1	0.708005	0.708005	0	1	0	0	CorrectCommission	1.671860	1.068030	0	0	7
4.491673	1.279673	city	5	1	0.962345	0.962345	0	1	0	0	CorrectCommission	0.548845	1.040529	0	0	7
5.777967	1.292915	city	2	1	0.948452	0.948452	0	1	0	0	CorrectCommission	0.610190	1.013041	0	0	7
7.064210	1.279570	city	10	1	0.914998	0.914998	0	1	0	0	CorrectCommission	0.757904	0.985177	0	0	7
8.357115	1.306239	city	7	1	0.948644	0.948644	0	1	0	0	CorrectCommission	0.609343	0.956374	0	0	7
9.650018	1.279565	city	9	1	0.654406	0.654406	0	1	0	0	CorrectCommission	1.908523	0.926043	0	0	7
10.929594	1.279589	city	5	1	1.416935	1.416935	0	1	0	0	CorrectCommission	1.458356	0.893658	0	0	7
12.209191	1.279604	city	4	1	1.284328	1.284328	0	1	0	0	CorrectCommission	0.872841	0.858945	0	0	7
13.488692	1.279399	city	5	1	1.296652	1.296652	0	1	0	0	CorrectCommission	0.927257	0.821933	0	0	7
14.771236	1.285689	mountain	8	1	1.181652	1.181652	0	0	1	0	CommissionError	0.419483	0.782955	0	0	7
16.050898	1.273633	mountain	4	0	0.000000	1.237094	1	0	0	0	CorrectOmission	0.664282	0.742645	0	0	7
17.327501	1.279574	city	6	1	1.284007	1.284007	0	1	0	0	CorrectCommission	0.871423	0.701802	0	0	7
18.607090	1.279605	city	3	1	1.143420	1.143420	0	1	0	0	CorrectCommission	0.250674	0.661300	1	0	7
19.886665	1.279548	city	7	1	0.964354	0.964354	0	1	0	0	CorrectCommission	0.539975	0.622014	1	0	7
21.166243	1.279605	city	3	1	0.979849	0.979849	0	1	0	0	CorrectCommission	0.471561	0.584692	1	0	7
22.445782	1.279472	city	10	1	0.910950	0.910950	0	1	0	0	CorrectCommission	0.775778	0.549961	1	0	7
23.725185	1.279335	city	4	1	0.916224	0.916224	0	1	0	0	CorrectCommission	0.752491	0.518284	1	0	7
25.004742	1.279780	city	5	1	0.970204	0.970204	0	1	0	0	CorrectCommission	0.514148	0.489982	1	0	7
26.284489	1.279713	city	7	1	1.177466	1.177466	0	1	0	0	CorrectCommission	0.401000	0.465223	1	0	7
27.564142	1.279592	city	2	1	1.071808	1.071808	0	1	0	0	CorrectCommission	0.065524	0.443999	1	0	7
28.843718	1.279561	city	3	1	1.128440	1.128440	0	1	0	0	CorrectCommission	0.184533	0.426136	1	0	7
30.123232	1.279468	city	9	1	1.017588	1.017588	0	1	0	0	CorrectCommission	0.304925	0.411314	1	0	7
31.409491	1.293046	city	7	1	0.997038	0.997038	0	1	0	0	CorrectCommission	0.395663	0.399077	1	0	7
32.695751	1.279476	city	10	1	1.070888	1.070888	0	1	0	0	CorrectCommission	0.069583	0.388946	1	0	7
33.975269	1.279562	mountain	8	0	0.000000	1.254641	1	0	0	0	CorrectOmission	0.741762	0.380481	1	0	7
35.254887	1.279672	city	3	1	1.342506	1.342506	0	1	0	0	CorrectCommission	1.129719	0.373358	1	0	7
36.534523	1.279603	city	5	1	1.128690	1.128690	0	1	0	0	CorrectCommission	0.185634	0.367464	1	0	7
37.827370	1.306088	city	4	1	1.098161	1.098161	0	1	0	0	CorrectCommission	0.050836	0.362960	1	0	7
39.126865	1.292900	city	3	1	1.092621	1.092621	0	1	0	0	CorrectCommission	0.026377	0.360216	1	0	7
40.413177	1.279727	city	6	1	1.198661	1.198661	0	1	0	0	CorrectCommission	0.494586	0.359850	1	0	7
41.692833	1.279585	city	8	1	0.969172	0.969172	0	1	0	0	CorrectCommission	0.518703	0.362627	1	0	7
42.972401	1.279546	city	7	1	1.032070	1.032070	0	1	0	0	CorrectCommission	0.240984	0.369432	1	0	7
44.251968	1.279590	city	5	1	1.073574	1.073574	0	1	0	0	CorrectCommission	0.057724	0.381135	1	0	7
45.531521	1.279512	city	1	1	0.964728	0.964728	0	1	0	0	CorrectCommission	0.538323	0.398505	1	0	7
46.824429	1.306308	city	10	1	1.013424	1.013424	0	1	0	0	CorrectCommission	0.323312	0.422108	1	0	7
48.117367	1.279569	city	2	1	1.074914	1.074914	0	1	0	0	CorrectCommission	0.051809	0.452224	1	0	7
49.396866	1.279428	city	7	1	0.921497	0.921497	0	1	0	0	CorrectCommission	0.729205	0.488748	1	0	7
52.795761	5.518361	break	0	1	1.129434	1.129434	0	0	0	0	ThoughtProbe	0.188921	0.531110	1	7	7
56.194748	1.279610	city	3	1	1.239248	1.239248	0	1	0	0	CorrectCommission	0.673792	0.578305	1	0	6.869565e+00
57.494312	1.319520	city	6	1	1.180054	1.180054	0	1	0	0	CorrectCommission	0.412426	0.628909	1	0	6.739130e+00
58.793865	1.279593	city	2	1	0.974517	0.974517	0	1	0	0	CorrectCommission	0.495100	0.681201	1	0	6.608696e+00
60.080109	1.292892	city	8	1	0.969755	0.969755	0	1	0	0	CorrectCommission	0.516129	0.733288	0	0	6.478261e+00
61.366344	1.279579	city	6	1	0.918847	0.918847	0	1	0	0	CorrectCommission	0.740906	0.783331	0	0	6.347826e+00
62.645935	1.279601	city	4	1	1.289591	1.289591	0	1	0	0	CorrectCommission	0.896078	0.829729	0	0	6.217391e+00
63.925468	1.279462	mountain	7	0	0.000000	1.404192	1	0	0	0	CorrectOmission	1.402087	0.871301	0	0	6.086957e+00
65.204971	1.279541	city	10	1	1.462833	1.462833	0	1	0	0	CorrectCommission	1.661014	0.907385	0	0	5.956522e+00
66.484596	1.279712	city	6	1	1.665699	1.665699	0	1	0	0	CorrectCommission	2.556750	0.937786	0	0	5.826087e+00
67.764252	1.279596	city	2	1	1.092016	1.092016	0	1	0	0	CorrectCommission	0.023705	0.962645	0	0	5.695652e+00
69.043823	1.279556	city	6	1	1.016816	1.016816	0	1	0	0	CorrectCommission	0.308333	0.982300	0	0	5.565217e+00
70.323402	1.279602	city	2	1	1.026392	1.026392	0	1	0	0	CorrectCommission	0.266055	0.996917	0	0	5.434783e+00
71.602997	1.279578	city	4	1	1.352383	1.352383	0	1	0	0	CorrectCommission	1.173329	1.006378	0	0	5.304348e+00
72.895905	1.306240	city	10	1	1.214443	1.214443	0	1	0	0	CorrectCommission	0.564271	1.010183	0	0	5.173913e+00
74.188736	1.279418	mountain	2	0	0.000000	1.293821	1	0	0	0	CorrectOmission	0.914756	1.007602	0	0	5.043478e+00
75.468315	1.279741	city	2	1	1.452957	1.452957	0	1	0	0	CorrectCommission	1.617405	0.997834	0	0	4.913043e+00
76.747963	1.279557	city	4	1	1.554291	1.554291	0	1	0	0	CorrectCommission	2.064837	0.980317	0	0	4.782609e+00
78.027542	1.279600	mountain	10	0	0.000000	1.501420	1	0	0	0	CorrectOmission	1.831390	0.955000	0	0	4.652174e+00
79.307045	1.279409	city	9	1	1.305313	1.305313	0	1	0	0	CorrectCommission	0.965500	0.922513	0	0	4.521739e+00
80.586617	1.279735	city	5	1	0.976942	0.976942	0	1	0	0	CorrectCommission	0.484397	0.884200	0	0	4.391304e+00
81.866280	1.279581	city	8	1	0.875028	0.875028	0	1	0	0	CorrectCommission	0.934387	0.841936	0	0	4.260870e+00
83.145813	1.279498	city	1	1	0.861860	0.861860	0	1	0	0	CorrectCommission	0.992531	0.797852	0	0	4.130435e+00
84.432053	1.292978	city	6	1	1.084882	1.084882	0	1	0	0	CorrectCommission	0.007797	0.754019	0	0	4
85.718269	1.279449	city	7	1	1.146887	1.146887	0	1	0	0	CorrectCommission	0.265983	0.712171	0	0	3.869565e+00
86.997833	1.279690	city	3	1	1.038138	1.038138	0	1	0	0	CorrectCommission	0.214189	0.673439	1	0	3.739130e+00
88.290810	1.306256	city	9	1	0.994650	0.994650	0	1	0	0	CorrectCommission	0.406209	0.638331	1	0	3.608696e+00
89.583725	1.279572	city	10	1	0.819046	0.819046	0	1	0	0	CorrectCommission	1.181572	0.606766	1	0	3.478261e+00
90.863304	1.279583	city	2	1	0.987511	0.987511	0	1	0	0	CorrectCommission	0.437728	0.578294	1	0	3.347826e+00
92.142883	1.279582	city	3	1	1.320886	1.320886	0	1	0	0	CorrectCommission	1.034260	0.552360	1	0	3.217391e+00
93.449120	1.332882	city	5	1	1.284123	1.284123	0	1	0	0	CorrectCommission	0.871934	0.528520	1	0	3.086957e+00
94.775269	1.319420	city	10	1	1.206666	1.206666	0	1	0	0	CorrectCommission	0.529929	0.506613	1	0	2.956522e+00
96.074844	1.279736	city	9	1	1.127776	1.127776	0	1	0	0	CorrectCommission	0.181601	0.486892	1	0	2.826087e+00
97.354515	1.279606	city	5	1	1.025461	1.025461	0	1	0	0	CorrectCommission	0.270165	0.469927	1	0	2.695652e+00
98.634026	1.279412	city	6	1	0.967300	0.967300	0	1	0	0	CorrectCommission	0.526966	0.456489	1	0	2.565217e+00
99.913582	1.279700	mountain	1	0	0.000000	1.042613	1	0	0	0	CorrectOmission	0.194433	0.447358	1	0	2.434783e+00
101.193230	1.279599	city	3	1	1.085026	1.085026	0	1	0	0	CorrectCommission	0.007160	0.443148	1	0	2.304348e+00
102.472755	1.279454	city	8	1	0.928170	0.928170	0	1	0	0	CorrectCommission	0.699745	0.444144	1	0	2.173913e+00
103.752274	1.279571	city	9	1	1.087348	1.087348	0	1	0	0	CorrectCommission	0.003091	0.450163	1	0	2.043478e+00
105.031929	1.279748	city	5	1	1.190497	1.190497	0	1	0	0	CorrectCommission	0.458539	0.460608	1	0	1.913043e+00
106.311508	1.279415	city	9	1	1.256530	1.256530	0	1	0	0	CorrectCommission	0.750101	0.474469	1	0	1.782609e+00
107.591072	1.279705	city	3	1	1.022310	1.022310	0	1	0	0	CorrectCommission	0.284077	0.490490	1	0	1.652174e+00
108.870712	1.279579	city	9	1	1.025345	1.025345	0	1	0	0	CorrectCommission	0.270675	0.507340	1	0	1.521739e+00
110.150223	1.279444	city	4	1	1.248166	1.248166	0	1	0	0	CorrectCommission	0.713171	0.523762	1	0	1.391304e+00
111.429802	1.279709	city	5	1	1.236559	1.236559	0	1	0	0	CorrectCommission	0.661919	0.538764	1	0	1.260870e+00
112.709457	1.279609	city	3	1	1.364779	1.364779	0	1	0	0	CorrectCommission	1.228065	0.551770	1	0	1.130435e+00
116.148323	5.598120	break	0	1	1.154504	1.154504	0	0	0	0	ThoughtProbe	0.299615	0.562674	1	1	1
119.587173	1.279575	city	8	1	1.231218	1.231218	0	1	0	0	CorrectCommission	0.638337	0.571859	1	0	3.441176e+00
120.866753	1.279591	city	1	1	0.978345	0.978345	0	1	0	0	CorrectCommission	0.478202	0.580091	1	0	5.882353e+00
122.146355	1.279608	city	8	1	0.879766	0.879766	0	1	0	0	CorrectCommission	0.913469	0.588403	1	0	8.323529e+00
123.425941	1.279560	city	7	1	0.976159	0.976159	0	1	0	0	CorrectCommission	0.487854	0.597937	1	0	1.076471e+01
124.705467	1.279495	city	9	1	1.023410	1.023410	0	1	0	0	CorrectCommission	0.279222	0.609785	1	0	1.320588e+01
125.985054	1.279679	city	6	1	1.135906	1.135906	0	1	0	0	CorrectCommission	0.217498	0.624815	1	0	1.564706e+01
127.264671	1.279558	city	3	1	1.020314	1.020314	0	1	0	0	CorrectCommission	0.292890	0.643544	1	0	1.808824e+01
128.550919	1.292930	city	4	1	0.818006	0.818006	0	1	0	0	CorrectCommission	1.186163	0.666075	1	0	2.052941e+01
129.837158	1.279562	mountain	7	1	0.982738	0.982738	0	0	1	0	CommissionError	0.458802	0.692064	0	0	2.297059e+01
131.116730	1.279584	city	7	1	1.295273	1.295273	0	1	0	0	CorrectCommission	0.921168	0.720790	0	0	2.541176e+01
132.402985	1.292918	city	3	1	0.996968	0.996968	0	1	0	0	CorrectCommission	0.395973	0.751172	0	0	2.785294e+01
133.689224	1.279561	city	6	1	0.869336	0.869336	0	1	0	0	CorrectCommission	0.959520	0.781878	0	0	3.029412e+01
134.968811	1.279598	city	2	1	0.874383	0.874383	0	1	0	0	CorrectCommission	0.937235	0.811388	0	0	3.273529e+01
136.268372	1.319543	city	9	1	0.866224	0.866224	0	1	0	0	CorrectCommission	0.973259	0.838117	0	0	3.517647e+01
137.567871	1.279444	city	6	1	0.883088	0.883088	0	1	0	0	CorrectCommission	0.898801	0.860508	0	0	3.761765e+01
138.860779	1.306383	city	7	1	1.161705	1.161705	0	1	0	0	CorrectCommission	0.331411	0.877140	0	0	4.005882e+01
140.153778	1.279593	city	9	1	0.827773	0.827773	0	1	0	0	CorrectCommission	1.143038	0.886884	0	0	4.250000e+01
141.446686	1.306233	city	10	1	0.879160	0.879160	0	1	0	0	CorrectCommission	0.916142	0.888990	0	0	4.494118e+01
142.739517	1.279427	city	5	1	0.594890	0.594890	0	1	0	0	CorrectCommission	2.171309	0.883220	0	0	4.738235e+01
144.019089	1.279733	mountain	6	1	0.825343	0.825343	0	0	1	0	CommissionError	1.153765	0.869854	0	0	4.982353e+01
145.298737	1.279557	city	2	1	1.317674	1.317674	0	1	0	0	CorrectCommission	1.020077	0.849752	0	0	5.226471e+01
146.611588	1.346129	city	10	1	1.035328	1.035328	0	1	0	0	CorrectCommission	0.226598	0.824238	0	0	5.470588e+01
147.924484	1.279678	city	5	1	1.035463	1.035463	0	1	0	0	CorrectCommission	0.226001	0.794991	0	0	5.714706e+01
149.210785	1.292921	city	2	1	0.892436	0.892436	0	1	0	0	CorrectCommission	0.857525	0.763853	0	0	5.958824e+01
150.497025	1.279565	city	7	1	1.409203	1.409203	0	1	0	0	CorrectCommission	1.424213	0.732683	0	0	6.202941e+01
151.789963	1.306292	city	10	1	1.255241	1.255241	0	1	0	0	CorrectCommission	0.744408	0.703196	0	0	6.447059e+01
153.082870	1.279542	city	9	1	1.140644	1.140644	0	1	0	0	CorrectCommission	0.238416	0.676873	1	0	6.691176e+01
154.375748	1.306218	city	1	1	0.999522	0.999522	0	1	0	0	CorrectCommission	0.384696	0.654880	1	0	6.935294e+01
155.675323	1.292906	city	4	1	1.002495	1.002495	0	1	0	0	CorrectCommission	0.371567	0.638011	1	0	7.179412e+01
156.968231	1.292911	city	3	1	1.244665	1.244665	0	1	0	0	CorrectCommission	0.697713	0.626737	1	0	7.423529e+01
158.254471	1.279577	city	4	1	1.080748	1.080748	0	1	0	0	CorrectCommission	0.026048	0.621228	1	0	7.667647e+01
159.534042	1.279580	city	6	1	0.823567	0.823567	0	1	0	0	CorrectCommission	1.161607	0.621456	1	0	7.911765e+01
160.820312	1.292955	city	3	1	0.932585	0.932585	0	1	0	0	CorrectCommission	0.680248	0.627189	1	0	8.155882e+01
164.039246	5.144897	break	0	1	1.245599	1.245599	0	0	0	0	ThoughtProbe	0.701836	0.638101	1	84	84
167.251495	1.279610	city	2	1	1.182849	1.182849	0	1	0	0	CorrectCommission	0.424769	0.653725	1	0	8.350000e+01
168.531036	1.279475	city	9	1	0.980692	0.980692	0	1	0	0	CorrectCommission	0.467838	0.673426	1	0	83
169.810623	1.279684	city	2	1	0.923516	0.923516	0	1	0	0	CorrectCommission	0.720292	0.696341	0	0	8.250000e+01
171.103516	1.306100	city	8	1	0.889229	0.889229	0	1	0	0	CorrectCommission	0.871684	0.721328	0	0	8.200000e+01
172.396408	1.279692	city	5	1	1.032942	1.032942	0	1	0	0	CorrectCommission	0.237133	0.746917	0	0	8.150000e+01
173.682663	1.292818	city	7	1	1.209734	1.209734	0	1	0	0	CorrectCommission	0.543479	0.771396	0	0	8.100000e+01
174.968918	1.279688	city	9	1	0.923512	0.923512	0	1	0	0	CorrectCommission	0.720311	0.792836	0	0	8.050000e+01
176.261871	1.306240	city	7	1	0.787085	0.787085	0	1	0	0	CorrectCommission	1.322692	0.809323	0	0	80
177.554733	1.279463	mountain	9	0	0.000000	1.249980	1	0	0	0	CorrectOmission	0.721179	0.819151	0	0	7.950000e+01
178.834244	1.279555	city	7	1	1.526732	1.526732	0	1	0	0	CorrectCommission	1.943153	0.821073	0	0	79
180.127258	1.306480	city	6	1	0.831877	0.831877	0	1	0	0	CorrectCommission	1.124916	0.814429	0	0	7.850000e+01
181.420242	1.279491	city	7	1	0.981831	0.981831	0	1	0	0	CorrectCommission	0.462810	0.799309	0	0	78
182.699692	1.279417	city	6	1	0.821627	0.821627	0	1	0	0	CorrectCommission	1.170172	0.776521	0	0	7.750000e+01
183.999252	1.319713	city	7	1	0.994628	0.994628	0	1	0	0	CorrectCommission	0.406304	0.747506	0	0	77
185.298935	1.279636	mountain	6	1	0.765520	0.765520	0	0	1	0	CommissionError	1.417912	0.714232	0	0	7.650000e+01
186.578461	1.279425	city	6	1	1.092791	1.092791	0	1	0	0	CorrectCommission	0.027126	0.678897	1	0	76
187.857941	1.279538	city	2	1	0.925355	0.925355	0	1	0	0	CorrectCommission	0.712171	0.643812	1	0	7.550000e+01
189.137543	1.279643	city	7	1	1.069469	1.069469	0	1	0	0	CorrectCommission	0.075849	0.611104	1	0	75
190.423782	1.292853	city	8	1	0.880936	0.880936	0	1	0	0	CorrectCommission	0.908299	0.582604	1	0	7.450000e+01
191.723328	1.306235	city	10	1	0.929664	0.929664	0	1	0	0	CorrectCommission	0.693147	0.559689	1	0	74
193.016312	1.279730	city	5	1	1.088877	1.088877	0	1	0	0	CorrectCommission	0.009844	0.543289	1	0	7.350000e+01
194.295883	1.279417	city	9	1	1.032163	1.032163	0	1	0	0	CorrectCommission	0.240570	0.533903	1	0	73
195.582108	1.293039	city	4	1	0.990719	0.990719	0	1	0	0	CorrectCommission	0.423564	0.531636	1	0	7.250000e+01
196.875092	1.292916	city	3	1	1.002830	1.002830	0	1	0	0	CorrectCommission	0.370090	0.536287	1	0	72
198.181335	1.319569	city	6	1	0.871152	0.871152	0	1	0	0	CorrectCommission	0.951503	0.547479	1	0	7.150000e+01
199.487595	1.292953	city	1	1	0.927650	0.927650	0	1	0	0	CorrectCommission	0.702041	0.564762	1	0	71
200.773758	1.279374	city	2	1	1.076404	1.076404	0	1	0	0	CorrectCommission	0.045230	0.587753	1	0	7.050000e+01
202.053329	1.279768	city	9	1	0.975976	0.975976	0	1	0	0	CorrectCommission	0.488660	0.616109	1	0	70
203.332993	1.279573	city	8	1	0.982585	0.982585	0	1	0	0	CorrectCommission	0.459481	0.649580	1	0	6.950000e+01
204.612564	1.279549	city	3	1	0.815962	0.815962	0	1	0	0	CorrectCommission	1.195188	0.687995	1	0	69
205.892120	1.279581	mountain	3	1	0.881352	0.881352	0	0	1	0	CommissionError	0.906465	0.731188	0	0	6.850000e+01
207.185043	1.306259	city	8	1	1.178317	1.178317	0	1	0	0	CorrectCommission	0.404759	0.778872	0	0	68
208.484634	1.292912	city	10	1	0.982407	0.982407	0	1	0	0	CorrectCommission	0.460263	0.830629	0	0	6.750000e+01
209.770859	1.279532	city	2	1	1.247222	1.247222	0	1	0	0	CorrectCommission	0.709003	0.885739	0	0	67
211.050354	1.279471	city	8	1	0.974515	0.974515	0	1	0	0	CorrectCommission	0.495110	0.943193	0	0	6.650000e+01
212.356598	1.333024	city	1	1	0.833254	0.833254	0	1	0	0	CorrectCommission	1.118834	1.001722	0	0	66
213.669571	1.292906	city	3	1	1.595262	1.595262	0	1	0	0	CorrectCommission	2.245740	1.059838	0	0	6.550000e+01
214.969147	1.306262	city	1	1	1.216741	1.216741	0	1	0	0	CorrectCommission	0.574415	1.115986	0	0	65
216.262039	1.279512	city	9	1	0.865629	0.865629	0	1	0	0	CorrectCommission	0.975886	1.168718	0	0	6.450000e+01
219.447586	5.091592	break	0	1	0.922768	0.922768	0	0	0	0	ThoughtProbe	0.723597	1.216858	0	64	64
222.633240	1.279711	city	3	1	0.643821	0.643821	0	1	0	0	CorrectCommission	1.955262	1.259721	0	0	6.488235e+01
223.919540	1.292887	city	10	1	1.630242	1.630242	0	1	0	0	CorrectCommission	2.400191	1.297138	0	0	6.576471e+01
225.239105	1.346248	mountain	10	1	1.361078	1.361078	0	0	1	0	CommissionError	1.211721	1.329573	0	0	6.664706e+01
226.565353	1.306227	city	2	1	0.944423	0.944423	0	1	0	0	CorrectCommission	0.627980	1.358057	0	0	6.752941e+01
227.871490	1.306068	city	10	1	0.715280	0.715280	0	1	0	0	CorrectCommission	1.639739	1.383977	0	0	6.841176e+01
229.171005	1.292958	city	7	1	1.736917	1.736917	0	1	0	0	CorrectCommission	2.871207	1.408811	0	0	6.929412e+01
230.457321	1.279683	city	2	1	1.071602	1.071602	0	1	0	0	CorrectCommission	0.066432	1.433834	0	0	7.017647e+01
231.750214	1.306077	city	3	1	0.962880	0.962880	0	1	0	0	CorrectCommission	0.546483	1.459859	0	0	7.105882e+01
233.049789	1.293078	city	5	1	0.664356	0.664356	0	1	0	0	CorrectCommission	1.864590	1.486934	0	0	7.194118e+01
234.336075	1.279501	city	7	1	1.572494	1.572494	0	1	0	0	CorrectCommission	2.145212	1.514184	0	0	7.282353e+01
235.622314	1.292970	city	3	1	1.152333	1.152333	0	1	0	0	CorrectCommission	0.290028	1.539939	0	0	7.370588e+01
236.921921	1.306244	city	2	1	1.603092	1.603092	0	1	0	0	CorrectCommission	2.280313	1.561903	0	0	7.458824e+01
238.234833	1.319598	city	10	1	1.013500	1.013500	0	1	0	0	CorrectCommission	0.322978	1.577430	0	0	7.547059e+01
239.534424	1.279570	city	4	1	1.561233	1.561233	0	1	0	0	CorrectCommission	2.095491	1.584096	0	0	7.635294e+01
240.813919	1.279424	city	8	1	1.668345	1.668345	0	1	0	0	CorrectCommission	2.568433	1.579993	0	0	7.723529e+01
242.113480	1.319698	city	7	1	1.939959	1.939959	0	1	0	0	CorrectCommission	3.767720	1.564154	0	0	7.811765e+01
243.419754	1.292866	city	3	1	1.685498	1.685498	0	1	0	0	CorrectCommission	2.644170	1.536683	0	0	79
244.725998	1.319602	city	1	1	1.101091	1.101091	0	1	0	0	CorrectCommission	0.063776	1.498776	0	0	7.988235e+01
246.032196	1.292792	city	7	1	1.151096	1.151096	0	1	0	0	CorrectCommission	0.284565	1.452455	0	0	8.076471e+01
247.325043	1.292900	city	6	1	1.689627	1.689627	0	1	0	0	CorrectCommission	2.662401	1.400159	0	0	8.164706e+01
248.638016	1.333050	city	2	1	1.276547	1.276547	0	1	0	0	CorrectCommission	0.838486	1.344323	0	0	8.252941e+01
249.964310	1.319551	mountain	4	1	0.990555	0.990555	0	0	1	0	CommissionError	0.424289	1.287137	0	0	8.341176e+01
251.270554	1.292922	city	9	1	1.254629	1.254629	0	1	0	0	CorrectCommission	0.741706	1.230216	0	0	8.429412e+01
252.556793	1.279575	city	6	1	0.863191	0.863191	0	1	0	0	CorrectCommission	0.986652	1.174574	0	0	8.517647e+01
253.849686	1.306215	city	2	1	0.683400	0.683400	0	1	0	0	CorrectCommission	1.780503	1.120765	0	0	8.605882e+01
255.142517	1.279446	city	6	1	0.542007	0.542007	0	1	0	0	CorrectCommission	2.404813	1.069044	0	0	8.694118e+01
256.428772	1.293055	city	5	1	1.099076	1.099076	0	1	0	0	CorrectCommission	0.054878	1.019578	0	0	8.782353e+01
257.721710	1.292820	city	3	1	1.511461	1.511461	0	1	0	0	CorrectCommission	1.875726	0.972627	0	0	8.870588e+01
259.021301	1.306338	city	6	1	1.161399	1.161399	0	1	0	0	CorrectCommission	0.330056	0.928520	0	0	8.958824e+01
260.320923	1.292950	city	3	1	1.351618	1.351618	0	1	0	0	CorrectCommission	1.169954	0.887686	0	0	9.047059e+01
261.607178	1.279527	city	8	1	1.094626	1.094626	0	1	0	0	CorrectCommission	0.035226	0.850417	0	0	9.135294e+01
262.893341	1.292793	city	6	1	0.978441	0.978441	0	1	0	0	CorrectCommission	0.477774	0.816797	0	0	9.223529e+01
264.206146	1.332834	city	8	1	1.117039	1.117039	0	1	0	0	CorrectCommission	0.134190	0.786567	0	0	9.311765e+01
264.872559	8.877089	break	0	0	0.000000	1.322899	0	0	0	0	ThoughtProbe	1.043148	0.759082	0	94	94
274.389526	1.279752	city	3	1	1.343206	1.343206	0	1	0	0	CorrectCommission	1.132812	0.733409	0	0	9.402500e+01
275.675842	1.292894	city	2	1	0.925144	0.925144	0	1	0	0	CorrectCommission	0.713105	0.708466	0	0	9.405000e+01
276.968750	1.292905	city	10	1	0.880116	0.880116	0	1	0	0	CorrectCommission	0.911921	0.683261	1	0	9.407500e+01
278.254913	1.279425	city	6	1	1.302032	1.302032	0	1	0	0	CorrectCommission	0.951009	0.657052	1	0	9.410000e+01
279.554504	1.319736	city	1	1	0.957425	0.957425	0	1	0	0	CorrectCommission	0.570569	0.629518	1	0	9.412500e+01
280.994080	1.559450	city	3	1	1.369108	1.369108	0	1	0	0	CorrectCommission	1.247178	0.600839	1	0	9.415000e+01
282.440277	1.332936	city	2	1	1.053717	1.053717	0	1	0	0	CorrectCommission	0.145402	0.571630	1	0	9.417500e+01
283.753113	1.292752	city	6	1	1.034055	1.034055	0	1	0	0	CorrectCommission	0.232219	0.542839	1	0	9.420000e+01
285.052673	1.306372	city	4	1	1.145641	1.145641	0	1	0	0	CorrectCommission	0.260482	0.515599	1	0	9.422500e+01
286.365662	1.319561	city	9	1	0.959309	0.959309	0	1	0	0	CorrectCommission	0.562251	0.491065	1	0	9.425000e+01
287.671875	1.292906	mountain	10	1	1.152923	1.152923	0	0	1	0	CommissionError	0.292635	0.470274	1	0	9.427500e+01
289.004761	1.372812	city	9	1	1.162328	1.162328	0	1	0	0	CorrectCommission	0.334161	0.454075	1	0	9.430000e+01
290.330994	1.279652	city	1	1	0.966381	0.966381	0	1	0	0	CorrectCommission	0.531025	0.443075	1	0	9.432500e+01
291.610565	1.279499	mountain	9	1	0.967961	0.967961	0	0	1	0	CommissionError	0.524051	0.437582	1	0	9.435000e+01
292.890137	1.279658	city	8	1	1.085425	1.085425	0	1	0	0	CorrectCommission	0.005397	0.437715	1	0	9.437500e+01
294.176361	1.292825	city	2	1	0.936328	0.936328	0	1	0	0	CorrectCommission	0.663724	0.443341	1	0	9.440000e+01
295.469269	1.292993	city	1	1	0.988603	0.988603	0	1	0	0	CorrectCommission	0.432909	0.454105	1	0	9.442500e+01
296.755493	1.279439	mountain	10	1	1.071214	1.071214	0	0	1	0	CommissionError	0.068144	0.469444	1	0	9.445000e+01
298.035095	1.279739	city	7	1	1.284974	1.284974	0	1	0	0	CorrectCommission	0.875690	0.488577	1	0	9.447500e+01
299.321381	1.292863	city	4	1	1.141743	1.141743	0	1	0	0	CorrectCommission	0.243270	0.510469	1	0	9.450000e+01
300.627625	1.319613	city	7	1	1.076117	1.076117	0	1	0	0	CorrectCommission	0.046496	0.533931	1	0	9.452500e+01
301.947205	1.319571	city	9	1	0.980244	0.980244	0	1	0	0	CorrectCommission	0.469815	0.557618	1	0	9.455000e+01
303.260132	1.306235	city	2	1	0.874677	0.874677	0	1	0	0	CorrectCommission	0.935939	0.580160	1	0	9.457500e+01
304.553009	1.279543	city	8	1	1.300175	1.300175	0	1	0	0	CorrectCommission	0.942813	0.600262	1	0	9.460000e+01
305.852570	1.319575	city	6	1	1.035086	1.035086	0	1	0	0	CorrectCommission	0.227666	0.616857	1	0	9.462500e+01
307.172058	1.319427	city	4	1	0.828822	0.828822	0	1	0	0	CorrectCommission	1.138403	0.629207	1	0	9.465000e+01
308.478302	1.293047	city	10	1	0.770608	0.770608	0	1	0	0	CorrectCommission	1.395443	0.636950	1	0	9.467500e+01
309.764618	1.279579	city	7	1	1.299096	1.299096	0	1	0	0	CorrectCommission	0.938045	0.640090	1	0	9.470000e+01
311.050873	1.292912	city	2	1	1.085458	1.085458	0	1	0	0	CorrectCommission	0.005252	0.639000	1	0	9.472500e+01
312.350433	1.306236	city	4	1	1.085182	1.085182	0	1	0	0	CorrectCommission	0.006473	0.634328	1	0	9.475000e+01
313.643341	1.279564	city	7	1	0.964787	0.964787	0	1	0	0	CorrectCommission	0.538063	0.626856	1	0	9.477500e+01
314.922852	1.279452	city	3	1	0.751748	0.751748	0	1	0	0	CorrectCommission	1.478719	0.617463	1	0	9.480000e+01
316.202454	1.279768	city	2	1	1.136510	1.136510	0	1	0	0	CorrectCommission	0.220165	0.607070	1	0	9.482500e+01
317.488770	1.292857	city	5	1	0.974970	0.974970	0	1	0	0	CorrectCommission	0.493100	0.596694	1	0	9.485000e+01
318.788330	1.306245	city	8	1	0.901203	0.901203	0	1	0	0	CorrectCommission	0.818812	0.587380	1	0	9.487500e+01
320.087921	1.292958	city	4	1	0.941819	0.941819	0	1	0	0	CorrectCommission	0.639476	0.580225	1	0	9.490000e+01
321.380768	1.292704	city	8	1	0.834408	0.834408	0	1	0	0	CorrectCommission	1.113739	0.576360	1	0	9.492500e+01
322.666962	1.279730	city	1	1	1.034219	1.034219	0	1	0	0	CorrectCommission	0.231493	0.576801	1	0	9.495000e+01
323.946594	1.279523	city	6	1	1.090238	1.090238	0	1	0	0	CorrectCommission	0.015853	0.582399	1	0	9.497500e+01
328.391724	7.610729	break	0	0	0.000000	1.131684	0	0	0	0	ThoughtProbe	0.198854	0.593653	1	95	95
332.856964	1.319740	city	4	1	1.058943	1.058943	0	1	0	0	CorrectCommission	0.122328	0.610588	1	0	9.439130e+01
334.163269	1.292871	city	10	1	0.772401	0.772401	0	1	0	0	CorrectCommission	1.387529	0.632718	1	0	9.378261e+01
335.462799	1.306198	city	7	1	0.992816	0.992816	0	1	0	0	CorrectCommission	0.414303	0.658978	1	0	9.317391e+01
336.782318	1.332819	city	2	1	1.007146	1.007146	0	1	0	0	CorrectCommission	0.351030	0.687863	1	0	9.256522e+01
338.088562	1.279714	city	5	1	0.980759	0.980759	0	1	0	0	CorrectCommission	0.467539	0.717491	0	0	9.195652e+01
339.381500	1.306135	city	9	1	0.765831	0.765831	0	1	0	0	CorrectCommission	1.416537	0.745813	0	0	9.134783e+01
340.687744	1.306371	city	10	1	0.983426	0.983426	0	1	0	0	CorrectCommission	0.455763	0.770837	0	0	9.073913e+01
341.994049	1.306218	mountain	5	1	1.255012	1.255012	0	0	1	0	CommissionError	0.743398	0.790850	0	0	9.013043e+01
343.286926	1.279561	city	3	1	1.498066	1.498066	0	1	0	0	CorrectCommission	1.816583	0.804539	0	0	8.952174e+01
344.573120	1.292839	city	1	1	0.880034	0.880034	0	1	0	0	CorrectCommission	0.912283	0.811117	0	0	8.891304e+01
345.859375	1.279672	city	7	1	1.405511	1.405511	0	1	0	0	CorrectCommission	1.407912	0.810395	0	0	8.830435e+01
347.165649	1.332876	city	9	1	0.983053	0.983053	0	1	0	0	CorrectCommission	0.457412	0.802685	0	0	8.769565e+01
348.471893	1.279580	mountain	10	0	0.000000	1.027602	1	0	0	0	CorrectOmission	0.260711	0.788724	0	0	8.708696e+01
349.751465	1.279556	mountain	7	1	1.239963	1.239963	0	0	1	0	CommissionError	0.676949	0.769528	0	0	8.647826e+01
351.037628	1.292773	city	4	1	1.320941	1.320941	0	1	0	0	CorrectCommission	1.034500	0.746252	0	0	8.586957e+01
352.337128	1.306234	city	2	1	0.799757	0.799757	0	1	0	0	CorrectCommission	1.266742	0.720104	0	0	8.526087e+01
353.643433	1.306393	city	3	1	0.986824	0.986824	0	1	0	0	CorrectCommission	0.440762	0.692270	0	0	8.465217e+01
354.949768	1.306264	city	9	1	0.940183	0.940183	0	1	0	0	CorrectCommission	0.646701	0.663905	1	0	8.404348e+01
356.269287	1.332777	city	7	1	1.020001	1.020001	0	1	0	0	CorrectCommission	0.294270	0.636043	1	0	8.343478e+01
357.602173	1.333012	city	9	1	0.984389	0.984389	0	1	0	0	CorrectCommission	0.451512	0.609677	1	0	8.282609e+01
358.908478	1.279552	city	1	1	0.827676	0.827676	0	1	0	0	CorrectCommission	1.143467	0.585679	1	0	8.221739e+01
360.194641	1.292829	city	10	1	0.949552	0.949552	0	1	0	0	CorrectCommission	0.605333	0.564794	1	0	8.160870e+01
361.487488	1.292854	city	2	1	0.982411	0.982411	0	1	0	0	CorrectCommission	0.460248	0.547635	1	0	81
362.787048	1.306238	city	8	1	1.103531	1.103531	0	1	0	0	CorrectCommission	0.074545	0.534570	1	0	8.039130e+01
364.099945	1.319564	city	9	1	1.079451	1.079451	0	1	0	0	CorrectCommission	0.031778	0.525749	1	0	7.978261e+01
365.406250	1.293066	city	7	1	0.921438	0.921438	0	1	0	0	CorrectCommission	0.729469	0.521073	1	0	7.917391e+01
366.699249	1.292910	city	9	1	0.948740	0.948740	0	1	0	0	CorrectCommission	0.608918	0.520235	1	0	7.856522e+01
368.012146	1.332872	city	8	1	0.995138	0.995138	0	1	0	0	CorrectCommission	0.404054	0.522801	1	0	7.795652e+01
369.331696	1.306268	city	7	1	0.941584	0.941584	0	1	0	0	CorrectCommission	0.640517	0.528364	1	0	7.734783e+01
370.631287	1.292878	city	2	1	1.099773	1.099773	0	1	0	0	CorrectCommission	0.057954	0.536686	1	0	7.673913e+01
371.924164	1.292914	city	1	1	0.867769	0.867769	0	1	0	0	CorrectCommission	0.966437	0.547900	1	0	7.613043e+01
373.217010	1.292766	city	7	1	1.194050	1.194050	0	1	0	0	CorrectCommission	0.474226	0.562612	1	0	7.552174e+01
374.503265	1.279742	city	5	1	1.409773	1.409773	0	1	0	0	CorrectCommission	1.426733	0.581969	1	0	7.491304e+01
375.822845	1.359432	city	10	1	1.096829	1.096829	0	1	0	0	CorrectCommission	0.044957	0.607553	1	0	7.430435e+01
377.155731	1.306304	city	9	1	1.101410	1.101410	0	1	0	0	CorrectCommission	0.065184	0.641232	1	0	7.369565e+01
378.468506	1.319239	mountain	6	1	1.257470	1.257470	0	0	1	0	CommissionError	0.754251	0.684753	1	0	7.308696e+01
379.774658	1.293105	city	4	1	1.329257	1.329257	0	1	0	0	CorrectCommission	1.071221	0.739347	0	0	7.247826e+01
381.081085	1.319741	city	2	1	1.066347	1.066347	0	1	0	0	CorrectCommission	0.089637	0.805303	0	0	7.186957e+01
382.394012	1.306080	city	8	1	0.888461	0.888461	0	1	0	0	CorrectCommission	0.875075	0.881645	0	0	7.126087e+01
383.713562	1.333054	city	6	1	1.085573	1.085573	0	1	0	0	CorrectCommission	0.004744	0.965803	0	0	7.065217e+01
385.039886	1.319571	city	8	1	0.956979	0.956979	0	1	0	0	CorrectCommission	0.572538	1.053672	0	0	7.004348e+01
386.346100	1.292840	city	10	1	0.916308	0.916308	0	1	0	0	CorrectCommission	0.752117	1.139811	0	0	6.943478e+01
387.638916	1.292823	city	3	1	0.942240	0.942240	0	1	0	0	CorrectCommission	0.637618	1.217995	0	0	6.882609e+01
388.931854	1.293054	city	5	1	0.756841	0.756841	0	1	0	0	CorrectCommission	1.456229	1.281986	0	0	6.821739e+01
390.224792	1.292818	city	7	1	1.671434	1.671434	0	1	0	0	CorrectCommission	2.582072	1.326328	0	0	6.760870e+01
394.636688	7.530964	break	0	0	0.000000	2.001889	0	0	0	0	ThoughtProbe	4.041164	1.347155	0	67	67
399.061920	1.319530	mountain	8	0	0.000000	1.900495	1	0	0	0	CorrectOmission	3.593469	1.342746	0	0	6.608824e+01
400.361420	1.279440	city	6	1	1.519543	1.519543	0	1	0	0	CorrectCommission	1.911410	1.313737	0	0	6.517647e+01
401.674255	1.346223	city	3	1	1.011323	1.011323	0	1	0	0	CorrectCommission	0.332590	1.262960	0	0	6.426471e+01
403.000519	1.306298	city	2	1	0.995413	0.995413	0	1	0	0	CorrectCommission	0.402837	1.194905	0	0	6.335294e+01
404.306824	1.306336	city	6	1	1.156474	1.156474	0	1	0	0	CorrectCommission	0.308314	1.114962	0	0	6.244118e+01
405.633118	1.346254	city	8	1	0.983535	0.983535	0	1	0	0	CorrectCommission	0.455284	1.028693	0	0	6.152941e+01
406.959351	1.306188	city	7	1	0.888743	0.888743	0	1	0	0	CorrectCommission	0.873832	0.941150	0	0	6.061765e+01
408.272217	1.319587	city	3	1	0.809893	0.809893	0	1	0	0	CorrectCommission	1.221985	0.856441	0	0	5.970588e+01
409.591797	1.319540	city	8	1	0.845490	0.845490	0	1	0	0	CorrectCommission	1.064808	0.777513	0	0	5.879412e+01
410.911346	1.319565	city	4	1	0.954580	0.954580	0	1	0	0	CorrectCommission	0.583133	0.706214	0	0	5.788235e+01
412.224243	1.306242	city	2	1	1.091063	1.091063	0	1	0	0	CorrectCommission	0.019495	0.643439	1	0	5.697059e+01
413.517120	1.279495	city	8	1	0.925651	0.925651	0	1	0	0	CorrectCommission	0.710864	0.589387	1	0	5.605882e+01
414.796661	1.279588	city	7	1	0.926973	0.926973	0	1	0	0	CorrectCommission	0.705027	0.543799	1	0	5.514706e+01
416.109619	1.346320	city	2	1	1.032259	1.032259	0	1	0	0	CorrectCommission	0.240146	0.506226	1	0	5.423529e+01
417.422577	1.279585	city	7	1	1.034779	1.034779	0	1	0	0	CorrectCommission	0.229021	0.476184	1	0	5.332353e+01
418.708801	1.292885	mountain	7	0	0.000000	1.170106	1	0	0	0	CorrectOmission	0.368502	0.453247	1	0	5.241176e+01
420.021698	1.332889	city	6	1	1.249313	1.249313	0	1	0	0	CorrectCommission	0.718234	0.437149	1	0	5.150000e+01
421.334503	1.292744	city	7	1	1.083475	1.083475	0	1	0	0	CorrectCommission	0.014009	0.427746	1	0	5.058824e+01
422.660736	1.359710	city	10	1	1.063320	1.063320	0	1	0	0	CorrectCommission	0.102999	0.425032	1	0	4.967647e+01
424.000366	1.319576	city	2	1	1.267102	1.267102	0	1	0	0	CorrectCommission	0.796780	0.429107	1	0	4.876471e+01
425.319946	1.319580	city	1	1	1.115704	1.115704	0	1	0	0	CorrectCommission	0.128297	0.440116	1	0	4.785294e+01
426.632874	1.306239	city	8	1	1.057925	1.057925	0	1	0	0	CorrectCommission	0.126824	0.458277	1	0	4.694118e+01
427.932434	1.292889	city	7	1	0.934666	0.934666	0	1	0	0	CorrectCommission	0.671060	0.483745	1	0	4.602941e+01
429.218567	1.279423	city	1	1	0.862704	0.862704	0	1	0	0	CorrectCommission	0.988804	0.516565	1	0	4.511765e+01
430.511475	1.306390	city	6	1	1.127862	1.127862	0	1	0	0	CorrectCommission	0.181977	0.556554	1	0	4.420588e+01
431.825134	1.320918	city	5	1	0.980498	0.980498	0	1	0	0	CorrectCommission	0.468696	0.603148	1	0	4.329412e+01
433.138062	1.304899	city	4	1	1.090349	1.090349	0	1	0	0	CorrectCommission	0.016344	0.655242	1	0	4.238235e+01
434.436951	1.292917	city	10	1	0.983810	0.983810	0	1	0	0	CorrectCommission	0.454068	0.711140	0	0	4.147059e+01
435.729858	1.292905	city	3	1	0.933925	0.933925	0	1	0	0	CorrectCommission	0.674335	0.768533	0	0	4.055882e+01
437.042755	1.332852	city	8	1	0.964364	0.964364	0	1	0	0	CorrectCommission	0.539931	0.824582	0	0	3.964706e+01
438.368927	1.319509	city	1	1	0.797319	0.797319	0	1	0	0	CorrectCommission	1.277505	0.876168	0	0	3.873529e+01
439.675171	1.292990	city	4	1	1.527987	1.527987	0	1	0	0	CorrectCommission	1.948694	0.920143	0	0	3.782353e+01
440.974792	1.306236	city	8	1	0.889723	0.889723	0	1	0	0	CorrectCommission	0.869503	0.953668	0	0	3.691176e+01
445.619843	7.983886	break	0	0	0.000000	0.801111	0	0	0	0	ThoughtProbe	1.260760	0.974584	0	36	36
450.258331	1.293084	city	9	1	1.125226	1.125226	0	1	0	0	CorrectCommission	0.170339	0.981617	0	0	3.736957e+01
451.571259	1.332734	city	10	1	1.725141	1.725141	0	1	0	0	CorrectCommission	2.819208	0.974641	0	0	3.873913e+01
452.890808	1.306390	city	6	1	1.543407	1.543407	0	1	0	0	CorrectCommission	2.016782	0.954602	0	0	4.010870e+01
454.197113	1.306222	city	4	1	1.106560	1.106560	0	1	0	0	CorrectCommission	0.087921	0.923560	0	0	4.147826e+01
455.510010	1.319557	mountain	6	1	0.863273	0.863273	0	0	1	0	CommissionError	0.986289	0.884412	0	0	4.284783e+01
456.816162	1.292767	city	2	1	1.097652	1.097652	0	1	0	0	CorrectCommission	0.048587	0.840515	0	0	4.421739e+01
458.102417	1.279742	city	4	1	1.470442	1.470442	0	1	0	0	CorrectCommission	1.694611	0.795383	0	0	4.558696e+01
459.402069	1.319548	city	8	1	1.127023	1.127023	0	1	0	0	CorrectCommission	0.178274	0.752185	0	0	4.695652e+01
460.721649	1.319591	city	4	1	0.987145	0.987145	0	1	0	0	CorrectCommission	0.439346	0.713559	0	0	4.832609e+01
462.047791	1.332738	city	3	1	0.944285	0.944285	0	1	0	0	CorrectCommission	0.628587	0.681229	1	0	4.969565e+01
463.360687	1.293039	city	9	1	1.154375	1.154375	0	1	0	0	CorrectCommission	0.299044	0.655946	1	0	5.106522e+01
464.660370	1.306331	city	7	1	1.045093	1.045093	0	1	0	0	CorrectCommission	0.183478	0.637506	1	0	5.243478e+01
465.966553	1.306033	city	8	1	1.045127	1.045127	0	1	0	0	CorrectCommission	0.183332	0.624891	1	0	5.380435e+01
467.266022	1.292889	city	7	1	1.341096	1.341096	0	1	0	0	CorrectCommission	1.123494	0.616538	1	0	5.517391e+01
468.572327	1.319715	city	3	1	1.105510	1.105510	0	1	0	0	CorrectCommission	0.083284	0.610688	1	0	5.654348e+01
469.871979	1.279589	mountain	5	0	0.000000	1.326775	1	0	0	0	CorrectOmission	1.060262	0.605785	1	0	5.791304e+01
471.151550	1.279577	city	4	1	1.455410	1.455410	0	1	0	0	CorrectCommission	1.628238	0.600725	1	0	5.928261e+01
472.477783	1.372872	city	8	1	0.941931	0.941931	0	1	0	0	CorrectCommission	0.638983	0.595097	1	0	6.065217e+01
473.824005	1.319552	city	5	1	1.285822	1.285822	0	1	0	0	CorrectCommission	0.879436	0.589253	1	0	6.202174e+01
475.143555	1.319562	city	6	1	1.098742	1.098742	0	1	0	0	CorrectCommission	0.053400	0.584179	1	0	6.339130e+01
476.449799	1.292915	mountain	1	0	0.000000	0.989823	1	0	0	0	CorrectOmission	0.427520	0.581271	1	0	6.476087e+01
477.756012	1.319559	city	10	1	0.998318	0.998318	0	1	0	0	CorrectCommission	0.390010	0.581988	1	0	6.613043e+01
479.068939	1.306256	city	6	1	1.163481	1.163481	0	1	0	0	CorrectCommission	0.339249	0.587562	1	0	6.750000e+01
480.395111	1.346108	city	3	1	1.071955	1.071955	0	1	0	0	CorrectCommission	0.064873	0.598706	1	0	6.886957e+01
481.721344	1.306359	city	7	1	0.953950	0.953950	0	1	0	0	CorrectCommission	0.585912	0.615416	1	0	7.023913e+01
483.034302	1.319555	city	9	1	0.888428	0.888428	0	1	0	0	CorrectCommission	0.875222	0.636946	1	0	7.160870e+01
484.340576	1.292965	city	7	1	1.043967	1.043967	0	1	0	0	CorrectCommission	0.188451	0.661908	1	0	7.297826e+01
485.640076	1.306030	city	10	1	0.897371	0.897371	0	1	0	0	CorrectCommission	0.835734	0.688547	0	0	7.434783e+01
486.939606	1.293066	city	7	1	1.134048	1.134048	0	1	0	0	CorrectCommission	0.209293	0.714917	0	0	7.571739e+01
488.259247	1.346201	city	2	1	0.822195	0.822195	0	1	0	0	CorrectCommission	1.167668	0.739315	0	0	7.708696e+01
489.578766	1.292843	city	1	1	0.622403	0.622403	0	1	0	0	CorrectCommission	2.049830	0.760552	0	0	7.845652e+01
490.865021	1.279657	mountain	7	0	0.000000	0.898308	1	0	0	0	CorrectOmission	0.831597	0.778131	0	0	7.982609e+01
492.157898	1.306086	city	2	1	1.244718	1.244718	0	1	0	0	CorrectCommission	0.697946	0.792406	0	0	8.119565e+01
493.464050	1.306231	city	3	1	1.256443	1.256443	0	1	0	0	CorrectCommission	0.749717	0.804424	0	0	8.256522e+01
494.777008	1.319672	city	7	1	1.222143	1.222143	0	1	0	0	CorrectCommission	0.598269	0.815833	0	0	8.393478e+01
496.089905	1.306141	city	8	1	0.880546	0.880546	0	1	0	0	CorrectCommission	0.910023	0.828566	0	0	8.530435e+01
497.396118	1.306318	city	3	1	0.970036	0.970036	0	1	0	0	CorrectCommission	0.514889	0.844590	0	0	8.667391e+01
498.709015	1.319470	city	1	1	1.122046	1.122046	0	1	0	0	CorrectCommission	0.156300	0.865624	0	0	8.804348e+01
500.008636	1.279731	city	7	1	1.521958	1.521958	0	1	0	0	CorrectCommission	1.922073	0.892921	0	0	8.941304e+01
501.301544	1.306120	city	2	1	1.094288	1.094288	0	1	0	0	CorrectCommission	0.033737	0.927129	0	0	9.078261e+01
502.614380	1.319522	city	6	1	1.182372	1.182372	0	1	0	0	CorrectCommission	0.422662	0.968354	0	0	9.215217e+01
503.953979	1.359710	city	9	1	1.099432	1.099432	0	1	0	0	CorrectCommission	0.056448	1.016104	0	0	9.352174e+01
505.293640	1.319570	city	10	1	1.733487	1.733487	0	1	0	0	CorrectCommission	2.856061	1.069474	0	0	9.489130e+01
506.613129	1.319416	city	5	1	1.413439	1.413439	0	1	0	0	CorrectCommission	1.442919	1.127207	0	0	9.626087e+01
507.926025	1.306409	city	2	1	1.108472	1.108472	0	1	0	0	CorrectCommission	0.096364	1.187927	0	0	9.763043e+01
512.111389	7.064341	break	0	0	0.000000	0.803505	0	0	0	0	ThoughtProbe	1.250191	1.250191	0	99	99
