onset	duration	trial_type	image_type	Press	ReactionTime	ReactionTime_Interpolated	CorrectOmission	CorrectCommission	CommissionError	OmissionError	response_type	nonsmoothVarianceTimeCourse	VarianceTimeCourse	In_the_Zone	ThoughtProbe	ThoughtProbe_Interpolated
0.652993	1.279736	city	7	1	1.602324	1.602324	0	1	0	0	CorrectCommission	1.334019	1.334019	0	0	44
1.932651	1.279581	mountain	10	0	0.000000	1.360729	1	0	0	0	CorrectOmission	0.324378	1.292183	0	0	44
3.212242	1.279601	city	7	1	1.140902	1.140902	0	1	0	0	CorrectCommission	0.594292	1.253063	0	0	44
4.491818	1.279551	city	10	1	0.964612	0.964612	0	1	0	0	CorrectCommission	1.331021	1.219027	0	0	44
5.771396	1.279604	city	6	1	1.175661	1.175661	0	1	0	0	CorrectCommission	0.449034	1.191809	0	0	44
7.050976	1.279557	city	10	1	0.968683	0.968683	0	1	0	0	CorrectCommission	1.314006	1.172375	0	0	44
8.330555	1.279601	city	4	1	1.033468	1.033468	0	1	0	0	CorrectCommission	1.043264	1.160718	0	0	44
9.610136	1.279562	city	9	1	0.962142	0.962142	0	1	0	0	CorrectCommission	1.341340	1.155984	0	0	44
10.889716	1.279596	city	10	1	0.929311	0.929311	0	1	0	0	CorrectCommission	1.478544	1.156482	0	0	44
12.169302	1.279576	city	2	1	1.102912	1.102912	0	1	0	0	CorrectCommission	0.753056	1.159921	0	0	44
13.448873	1.279567	city	4	1	1.075436	1.075436	0	1	0	0	CorrectCommission	0.867879	1.163616	0	0	44
14.735107	1.292902	city	6	1	1.131112	1.131112	0	1	0	0	CorrectCommission	0.635207	1.164732	0	0	44
16.021278	1.279440	mountain	1	0	0.000000	0.917416	1	0	0	0	CorrectOmission	1.528255	1.160617	0	0	44
17.300859	1.279723	city	9	1	0.754477	0.754477	0	1	0	0	CorrectCommission	2.209188	1.149112	0	0	44
18.580507	1.279571	city	6	1	0.962422	0.962422	0	1	0	0	CorrectCommission	1.340170	1.128841	0	0	44
19.860094	1.279603	city	3	1	0.984248	0.984248	0	1	0	0	CorrectCommission	1.248960	1.099471	0	0	44
21.139685	1.279579	city	5	1	1.069018	1.069018	0	1	0	0	CorrectCommission	0.894699	1.061782	0	0	44
22.419264	1.279579	city	10	1	0.864237	0.864237	0	1	0	0	CorrectCommission	1.750491	1.017678	0	0	44
23.698833	1.279561	city	2	1	0.968198	0.968198	0	1	0	0	CorrectCommission	1.316032	0.969929	0	0	44
24.978388	1.279547	city	9	1	1.018645	1.018645	0	1	0	0	CorrectCommission	1.105210	0.921926	0	0	44
26.257977	1.279630	mountain	4	0	0.000000	1.151553	1	0	0	0	CorrectOmission	0.549783	0.877191	0	0	44
27.537560	1.279539	city	5	1	1.285262	1.285262	0	1	0	0	CorrectCommission	0.008995	0.838895	0	0	44
28.817057	1.279454	city	7	1	1.338115	1.338115	0	1	0	0	CorrectCommission	0.229872	0.809446	0	0	44
30.096645	1.279726	city	10	1	1.301974	1.301974	0	1	0	0	CorrectCommission	0.078837	0.790147	0	0	44
31.376310	1.279601	city	7	1	1.465809	1.465809	0	1	0	0	CorrectCommission	0.763513	0.781053	0	0	44
32.655888	1.279554	city	2	1	1.249469	1.249469	0	1	0	0	CorrectCommission	0.140582	0.780984	0	0	44
33.935448	1.279565	city	7	1	1.583106	1.583106	0	1	0	0	CorrectCommission	1.253706	0.787834	0	0	44
35.215027	1.279599	city	8	1	1.182548	1.182548	0	1	0	0	CorrectCommission	0.420253	0.798853	0	0	44
36.494648	1.279640	city	1	1	0.941023	0.941023	0	1	0	0	CorrectCommission	1.429601	0.811175	0	0	44
37.794220	1.319503	city	5	1	0.921142	0.921142	0	1	0	0	CorrectCommission	1.512682	0.822128	0	0	44
39.093773	1.279600	city	7	1	0.940752	0.940752	0	1	0	0	CorrectCommission	1.430733	0.829590	0	0	44
40.386612	1.306077	city	5	1	1.154735	1.154735	0	1	0	0	CorrectCommission	0.536485	0.832141	0	0	44
41.692787	1.306275	city	1	1	0.957813	0.957813	0	1	0	0	CorrectCommission	1.359435	0.829068	0	0	44
42.985714	1.279583	city	3	1	1.328953	1.328953	0	1	0	0	CorrectCommission	0.191583	0.820198	0	0	44
44.272018	1.293022	city	1	1	1.213585	1.213585	0	1	0	0	CorrectCommission	0.290546	0.805786	0	0	44
45.571613	1.306173	city	8	1	1.137088	1.137088	0	1	0	0	CorrectCommission	0.610231	0.786265	0	0	44
46.891193	1.332981	mountain	7	1	0.969479	0.969479	0	0	1	0	CommissionError	1.310681	0.762161	0	0	44
48.230782	1.346200	city	9	1	1.073102	1.073102	0	1	0	0	CorrectCommission	0.877632	0.734016	0	0	44
49.556999	1.306231	city	4	1	1.115828	1.115828	0	1	0	0	CorrectCommission	0.699077	0.702437	1	0	44
50.863224	1.306225	city	10	1	0.955447	0.955447	0	1	0	0	CorrectCommission	1.369320	0.668098	1	0	44
52.162804	1.292928	city	6	1	1.368357	1.368357	0	1	0	0	CorrectCommission	0.356256	0.631829	1	0	44
53.449043	1.279557	city	1	1	1.155152	1.155152	0	1	0	0	CorrectCommission	0.534742	0.594646	1	0	44
54.741955	1.306262	city	2	1	1.126084	1.126084	0	1	0	0	CorrectCommission	0.656219	0.557715	1	0	44
56.048203	1.306237	city	7	1	1.168087	1.168087	0	1	0	0	CorrectCommission	0.480685	0.522313	1	0	44
57.341114	1.279579	city	9	1	1.195611	1.195611	0	1	0	0	CorrectCommission	0.365660	0.489731	1	0	44
60.993233	6.024660	break	0	1	1.303372	1.303372	0	0	0	0	ThoughtProbe	0.084678	0.461150	1	44	44
64.652023	1.292920	city	3	1	1.233574	1.233574	0	1	0	0	CorrectCommission	0.207011	0.437552	1	0	4.390000e+01
65.938263	1.279568	city	5	1	1.395680	1.395680	0	1	0	0	CorrectCommission	0.470440	0.419651	1	0	4.380000e+01
67.224518	1.292943	mountain	10	1	1.225423	1.225423	0	0	1	0	CommissionError	0.241074	0.407850	1	0	4.370000e+01
68.557373	1.372762	city	3	1	1.311350	1.311350	0	1	0	0	CorrectCommission	0.118020	0.402282	1	0	4.360000e+01
69.916916	1.346327	city	8	1	1.170032	1.170032	0	1	0	0	CorrectCommission	0.472557	0.402795	1	0	4.350000e+01
71.249855	1.319545	city	1	1	1.086218	1.086218	0	1	0	0	CorrectCommission	0.822818	0.408977	1	0	4.340000e+01
72.589417	1.359574	city	10	1	1.176473	1.176473	0	1	0	0	CorrectCommission	0.445638	0.420197	1	0	4.330000e+01
73.915649	1.292901	city	4	1	1.367231	1.367231	0	1	0	0	CorrectCommission	0.351551	0.435621	1	0	4.320000e+01
75.228554	1.332897	city	3	1	1.271297	1.271297	0	1	0	0	CorrectCommission	0.049363	0.454154	1	0	4.310000e+01
76.534790	1.279589	city	10	1	1.293559	1.293559	0	1	0	0	CorrectCommission	0.043672	0.474500	1	0	43
77.847710	1.346236	city	9	1	1.329121	1.329121	0	1	0	0	CorrectCommission	0.192285	0.495196	1	0	4.290000e+01
79.180588	1.319528	city	7	1	1.136833	1.136833	0	1	0	0	CorrectCommission	0.611295	0.514693	1	0	4.280000e+01
80.493484	1.306258	mountain	7	0	0.000000	1.478574	1	0	0	0	CorrectOmission	0.816861	0.531517	1	0	4.270000e+01
81.793068	1.292908	city	9	1	1.719674	1.719674	0	1	0	0	CorrectCommission	1.824431	0.544453	1	0	4.260000e+01
83.092636	1.306237	city	2	1	1.225464	1.225464	0	1	0	0	CorrectCommission	0.240903	0.552685	1	0	4.250000e+01
84.418777	1.346049	city	9	1	1.218485	1.218485	0	1	0	0	CorrectCommission	0.270068	0.555959	1	0	4.240000e+01
85.745003	1.306397	mountain	8	0	0.000000	1.429202	1	0	0	0	CorrectOmission	0.610529	0.554590	1	0	4.230000e+01
87.051323	1.306246	city	5	1	1.574380	1.574380	0	1	0	0	CorrectCommission	1.217240	0.549426	1	0	4.220000e+01
88.357559	1.306220	city	2	1	1.370788	1.370788	0	1	0	0	CorrectCommission	0.366415	0.541724	1	0	4.210000e+01
89.663788	1.306242	city	9	1	1.427573	1.427573	0	1	0	0	CorrectCommission	0.603724	0.533002	1	0	42
90.976692	1.319564	city	1	1	1.264715	1.264715	0	1	0	0	CorrectCommission	0.076868	0.524762	1	0	4.190000e+01
92.282921	1.292901	city	9	1	1.382085	1.382085	0	1	0	0	CorrectCommission	0.413625	0.518352	1	0	4.180000e+01
93.589172	1.319595	city	7	1	1.181107	1.181107	0	1	0	0	CorrectCommission	0.426274	0.514731	1	0	4.170000e+01
94.888748	1.279551	city	4	1	1.195765	1.195765	0	1	0	0	CorrectCommission	0.365015	0.514412	1	0	4.160000e+01
96.181709	1.306373	city	6	1	1.290390	1.290390	0	1	0	0	CorrectCommission	0.030428	0.517448	1	0	4.150000e+01
97.481293	1.292802	city	8	1	1.112837	1.112837	0	1	0	0	CorrectCommission	0.711577	0.523471	1	0	4.140000e+01
98.774185	1.292980	city	3	1	1.078339	1.078339	0	1	0	0	CorrectCommission	0.855745	0.531813	1	0	4.130000e+01
100.060425	1.279498	city	1	1	1.437304	1.437304	0	1	0	0	CorrectCommission	0.644391	0.541662	1	0	4.120000e+01
101.353294	1.306232	city	3	1	1.339491	1.339491	0	1	0	0	CorrectCommission	0.235623	0.552241	1	0	4.110000e+01
102.659531	1.306245	city	6	1	1.511451	1.511451	0	1	0	0	CorrectCommission	0.954255	0.562917	1	0	41
103.965767	1.306237	city	8	1	1.185900	1.185900	0	1	0	0	CorrectCommission	0.406244	0.573248	1	0	4.090000e+01
105.298653	1.359531	city	7	1	1.104964	1.104964	0	1	0	0	CorrectCommission	0.744480	0.583055	1	0	4.080000e+01
106.624886	1.292933	city	10	1	1.064585	1.064585	0	1	0	0	CorrectCommission	0.913225	0.592344	1	0	4.070000e+01
107.944466	1.346218	city	1	1	1.170175	1.170175	0	1	0	0	CorrectCommission	0.471958	0.601275	1	0	4.060000e+01
109.257362	1.279584	city	6	1	1.299098	1.299098	0	1	0	0	CorrectCommission	0.066820	0.610087	1	0	4.050000e+01
110.603600	1.412883	city	8	1	1.190562	1.190562	0	1	0	0	CorrectCommission	0.386761	0.619009	1	0	4.040000e+01
111.969810	1.319546	city	5	1	1.084614	1.084614	0	1	0	0	CorrectCommission	0.829522	0.628253	1	0	4.030000e+01
113.296036	1.332900	city	9	1	1.100921	1.100921	0	1	0	0	CorrectCommission	0.761377	0.637967	1	0	4.020000e+01
114.622261	1.319558	city	6	1	1.028520	1.028520	0	1	0	0	CorrectCommission	1.063944	0.648255	1	0	4.010000e+01
118.054474	5.544860	break	0	0	0.000000	1.323060	0	0	0	0	ThoughtProbe	0.166959	0.659162	1	40	40
121.473351	1.292894	city	6	1	1.576379	1.576379	0	1	0	0	CorrectCommission	1.225591	0.670735	1	0	4.008696e+01
122.779579	1.319568	city	8	1	1.380311	1.380311	0	1	0	0	CorrectCommission	0.406212	0.682931	1	0	4.017391e+01
124.125801	1.372877	city	6	1	1.143811	1.143811	0	1	0	0	CorrectCommission	0.582136	0.695653	1	0	4.026087e+01
125.452034	1.279585	mountain	6	1	1.051466	1.051466	0	0	1	0	CommissionError	0.968051	0.708651	1	0	4.034783e+01
126.738274	1.292899	mountain	10	1	1.259272	1.259272	0	0	1	0	CommissionError	0.099615	0.721528	1	0	4.043478e+01
128.031189	1.292932	mountain	5	0	0.000000	1.440359	1	0	0	0	CorrectOmission	0.657158	0.733706	0	0	4.052174e+01
129.324127	1.292926	city	4	1	1.412415	1.412415	0	1	0	0	CorrectCommission	0.540376	0.744468	0	0	4.060870e+01
130.663696	1.386220	city	8	1	0.993127	0.993127	0	1	0	0	CorrectCommission	1.211853	0.753044	0	0	4.069565e+01
132.016571	1.319521	city	5	1	0.944965	0.944965	0	1	0	0	CorrectCommission	1.413127	0.758680	0	0	4.078261e+01
133.316101	1.279551	city	9	1	1.085175	1.085175	0	1	0	0	CorrectCommission	0.827178	0.760768	0	0	4.086957e+01
134.628998	1.346252	city	6	1	1.088248	1.088248	0	1	0	0	CorrectCommission	0.814335	0.758938	0	0	4.095652e+01
135.968582	1.332896	city	7	1	1.203353	1.203353	0	1	0	0	CorrectCommission	0.333305	0.753065	0	0	4.104348e+01
137.281479	1.292909	city	6	1	1.053449	1.053449	0	1	0	0	CorrectCommission	0.959763	0.743305	0	0	4.113043e+01
138.587708	1.319564	city	10	1	1.189922	1.189922	0	1	0	0	CorrectCommission	0.389436	0.730032	1	0	4.121739e+01
139.940598	1.386209	city	4	1	1.099515	1.099515	0	1	0	0	CorrectCommission	0.767253	0.713838	1	0	4.130435e+01
141.306808	1.346204	city	9	1	0.962613	0.962613	0	1	0	0	CorrectCommission	1.339373	0.695410	1	0	4.139130e+01
142.633041	1.306255	city	4	1	1.015911	1.015911	0	1	0	0	CorrectCommission	1.116637	0.675483	1	0	4.147826e+01
143.939285	1.306237	city	10	1	1.182951	1.182951	0	1	0	0	CorrectCommission	0.418568	0.654732	1	0	4.156522e+01
145.272171	1.359535	city	4	1	1.226451	1.226451	0	1	0	0	CorrectCommission	0.236776	0.633715	1	0	4.165217e+01
146.598312	1.292763	city	3	1	1.313703	1.313703	0	1	0	0	CorrectCommission	0.127856	0.612814	1	0	4.173913e+01
147.904572	1.319735	city	10	1	1.143021	1.143021	0	1	0	0	CorrectCommission	0.585438	0.592238	1	0	4.182609e+01
149.204163	1.279460	city	1	1	1.329399	1.329399	0	1	0	0	CorrectCommission	0.193450	0.572119	1	0	4.191304e+01
150.497055	1.306334	city	6	1	1.412080	1.412080	0	1	0	0	CorrectCommission	0.538978	0.552581	1	0	42
151.830017	1.359571	city	3	1	1.786528	1.786528	0	1	0	0	CorrectCommission	2.103819	0.533894	1	0	4.208696e+01
153.162918	1.306228	city	5	1	1.290848	1.290848	0	1	0	0	CorrectCommission	0.032341	0.516537	1	0	4.217391e+01
154.455826	1.279585	city	3	1	1.394589	1.394589	0	1	0	0	CorrectCommission	0.465881	0.501329	1	0	4.226087e+01
155.762054	1.332898	city	1	1	1.447807	1.447807	0	1	0	0	CorrectCommission	0.688283	0.489281	1	0	4.234783e+01
157.141617	1.426211	city	6	1	1.304177	1.304177	0	1	0	0	CorrectCommission	0.088045	0.481487	1	0	4.243478e+01
158.507828	1.306224	city	1	1	1.309139	1.309139	0	1	0	0	CorrectCommission	0.108780	0.478932	1	0	4.252174e+01
159.834061	1.346220	city	3	1	1.323927	1.323927	0	1	0	0	CorrectCommission	0.170580	0.482234	1	0	4.260870e+01
161.146957	1.279587	city	1	1	1.427264	1.427264	0	1	0	0	CorrectCommission	0.602432	0.491469	1	0	4.269565e+01
162.459839	1.346179	city	2	1	1.250303	1.250303	0	1	0	0	CorrectCommission	0.137100	0.506053	1	0	4.278261e+01
163.792648	1.319443	city	8	1	1.304886	1.304886	0	1	0	0	CorrectCommission	0.091005	0.524734	1	0	4.286957e+01
165.112228	1.319703	city	3	1	1.131005	1.131005	0	1	0	0	CorrectCommission	0.635652	0.545689	1	0	4.295652e+01
166.418533	1.292913	mountain	8	0	0.000000	1.404652	1	0	0	0	CorrectOmission	0.507937	0.566696	1	0	4.304348e+01
167.704788	1.279601	city	2	1	1.587144	1.587144	0	1	0	0	CorrectCommission	1.270582	0.585448	1	0	4.313043e+01
169.031036	1.372881	city	10	1	1.139797	1.139797	0	1	0	0	CorrectCommission	0.598909	0.599785	1	0	4.321739e+01
170.363922	1.292888	city	2	1	1.490512	1.490512	0	1	0	0	CorrectCommission	0.866751	0.608034	1	0	4.330435e+01
171.656815	1.292926	city	1	1	1.496107	1.496107	0	1	0	0	CorrectCommission	0.890132	0.609133	1	0	4.339130e+01
172.956390	1.306218	city	8	1	1.476953	1.476953	0	1	0	0	CorrectCommission	0.810087	0.602785	1	0	4.347826e+01
174.275940	1.332889	city	10	1	1.582107	1.582107	0	1	0	0	CorrectCommission	1.249531	0.589443	1	0	4.356522e+01
175.628845	1.372910	city	7	1	1.356505	1.356505	0	1	0	0	CorrectCommission	0.306727	0.570201	1	0	4.365217e+01
176.975082	1.319554	city	8	1	1.228724	1.228724	0	1	0	0	CorrectCommission	0.227280	0.546656	1	0	4.373913e+01
178.287949	1.306196	city	9	1	1.340913	1.340913	0	1	0	0	CorrectCommission	0.241567	0.520695	1	0	4.382609e+01
179.580872	1.279626	city	10	1	1.348777	1.348777	0	1	0	0	CorrectCommission	0.274432	0.494300	1	0	4.391304e+01
183.759430	7.077518	break	0	0	0.000000	1.460730	0	0	0	0	ThoughtProbe	0.742290	0.469347	1	44	44
187.938065	1.279737	city	6	1	1.488252	1.488252	0	1	0	0	CorrectCommission	0.857304	0.447515	1	0	4.402500e+01
189.237717	1.319566	city	8	1	1.242822	1.242822	0	1	0	0	CorrectCommission	0.168362	0.430151	1	0	4.405000e+01
190.603928	1.412870	city	10	1	1.292291	1.292291	0	1	0	0	CorrectCommission	0.038372	0.418200	1	0	4.407500e+01
191.963470	1.306209	city	2	1	1.189055	1.189055	0	1	0	0	CorrectCommission	0.393058	0.412152	1	0	4.410000e+01
193.269623	1.306098	city	7	1	1.357882	1.357882	0	1	0	0	CorrectCommission	0.312481	0.411999	1	0	4.412500e+01
194.569122	1.292903	city	1	1	1.316411	1.316411	0	1	0	0	CorrectCommission	0.139171	0.417251	1	0	4.415000e+01
195.862015	1.292863	city	5	1	1.319204	1.319204	0	1	0	0	CorrectCommission	0.150844	0.426959	1	0	4.417500e+01
197.174988	1.333088	city	9	1	1.188787	1.188787	0	1	0	0	CorrectCommission	0.394179	0.439817	1	0	4.420000e+01
198.514618	1.346183	city	10	1	1.167942	1.167942	0	1	0	0	CorrectCommission	0.481290	0.454267	1	0	4.422500e+01
199.847519	1.319613	city	1	1	1.323928	1.323928	0	1	0	0	CorrectCommission	0.170583	0.468662	1	0	4.425000e+01
201.160446	1.306228	city	4	1	1.626302	1.626302	0	1	0	0	CorrectCommission	1.434226	0.481458	1	0	4.427500e+01
202.459991	1.292861	mountain	1	0	0.000000	1.422880	1	0	0	0	CorrectOmission	0.584111	0.491296	1	0	4.430000e+01
203.759506	1.306175	city	9	1	1.124596	1.124596	0	1	0	0	CorrectCommission	0.662437	0.497204	1	0	4.432500e+01
205.072449	1.319702	city	6	1	1.142386	1.142386	0	1	0	0	CorrectCommission	0.588089	0.498586	1	0	4.435000e+01
206.385406	1.306232	mountain	9	0	0.000000	1.187216	1	0	0	0	CorrectOmission	0.400742	0.495261	1	0	4.437500e+01
207.691635	1.306228	city	7	1	1.281051	1.281051	0	1	0	0	CorrectCommission	0.008601	0.487415	1	0	4.440000e+01
209.004532	1.319559	city	4	1	1.445855	1.445855	0	1	0	0	CorrectCommission	0.680127	0.475578	1	0	4.442500e+01
210.337433	1.346255	city	9	1	1.459740	1.459740	0	1	0	0	CorrectCommission	0.738152	0.460533	1	0	4.445000e+01
211.677002	1.332864	city	3	1	1.149863	1.149863	0	1	0	0	CorrectCommission	0.556845	0.443302	1	0	4.447500e+01
212.996536	1.306218	city	8	1	1.127921	1.127921	0	1	0	0	CorrectCommission	0.648543	0.425106	1	0	4.450000e+01
214.316116	1.332927	city	4	1	1.191323	1.191323	0	1	0	0	CorrectCommission	0.383578	0.407252	1	0	4.452500e+01
215.635696	1.306241	mountain	3	0	0.000000	1.268586	1	0	0	0	CorrectOmission	0.060691	0.391115	1	0	4.455000e+01
216.928543	1.279465	city	10	1	1.342324	1.342324	0	1	0	0	CorrectCommission	0.247461	0.378024	1	0	4.457500e+01
218.228119	1.319678	city	1	1	1.395149	1.395149	0	1	0	0	CorrectCommission	0.468221	0.369194	1	0	4.460000e+01
219.560974	1.346031	city	8	1	1.337302	1.337302	0	1	0	0	CorrectCommission	0.226475	0.365627	1	0	4.462500e+01
220.913864	1.359743	city	5	1	1.292465	1.292465	0	1	0	0	CorrectCommission	0.039100	0.368022	1	0	4.465000e+01
222.233521	1.279583	city	8	1	1.158337	1.158337	0	1	0	0	CorrectCommission	0.521432	0.376727	1	0	4.467500e+01
223.519775	1.292912	city	3	1	1.262636	1.262636	0	1	0	0	CorrectCommission	0.085556	0.391712	1	0	4.470000e+01
224.819351	1.306230	city	7	1	1.291958	1.291958	0	1	0	0	CorrectCommission	0.036981	0.412579	1	0	4.472500e+01
226.112244	1.279582	city	5	1	1.386534	1.386534	0	1	0	0	CorrectCommission	0.432221	0.438570	1	0	4.475000e+01
227.431808	1.359534	city	4	1	1.415998	1.415998	0	1	0	0	CorrectCommission	0.555351	0.468665	1	0	4.477500e+01
228.811340	1.399537	city	10	1	1.379741	1.379741	0	1	0	0	CorrectCommission	0.403830	0.501679	1	0	4.480000e+01
230.157578	1.292929	city	1	1	1.463766	1.463766	0	1	0	0	CorrectCommission	0.754976	0.536332	1	0	4.482500e+01
231.477142	1.346203	city	2	1	1.572218	1.572218	0	1	0	0	CorrectCommission	1.208202	0.571385	1	0	4.485000e+01
232.803360	1.306235	city	10	1	1.308971	1.308971	0	1	0	0	CorrectCommission	0.108080	0.605660	1	0	4.487500e+01
234.102936	1.292907	city	5	1	1.471502	1.471502	0	1	0	0	CorrectCommission	0.787306	0.638189	1	0	4.490000e+01
235.422485	1.346183	city	8	1	1.277143	1.277143	0	1	0	0	CorrectCommission	0.024931	0.668182	1	0	4.492500e+01
236.748703	1.306279	city	3	1	1.372549	1.372549	0	1	0	0	CorrectCommission	0.373775	0.695163	1	0	4.495000e+01
238.094925	1.386166	city	7	1	1.758187	1.758187	0	1	0	0	CorrectCommission	1.985381	0.718938	1	0	4.497500e+01
242.340118	7.104196	break	0	0	0.000000	1.435782	0	0	0	0	ThoughtProbe	0.638028	0.739620	0	45	45
246.545441	1.306450	city	4	1	1.024102	1.024102	0	1	0	0	CorrectCommission	1.082406	0.757689	0	0	4.517647e+01
247.865051	1.332784	city	1	1	1.141919	1.141919	0	1	0	0	CorrectCommission	0.590043	0.773803	0	0	4.535294e+01
249.184601	1.306319	city	5	1	1.523632	1.523632	0	1	0	0	CorrectCommission	1.005161	0.788739	0	0	4.552941e+01
250.504211	1.332911	mountain	4	0	0.000000	1.496581	1	0	0	0	CorrectOmission	0.892113	0.803173	0	0	4.570588e+01
251.817047	1.292740	city	7	1	1.333018	1.333018	0	1	0	0	CorrectCommission	0.208573	0.817532	0	0	4.588235e+01
253.123291	1.319743	city	9	1	1.305196	1.305196	0	1	0	0	CorrectCommission	0.092302	0.831851	0	0	4.605882e+01
254.476242	1.386181	city	4	1	0.931871	0.931871	0	1	0	0	CorrectCommission	1.467846	0.845696	0	0	4.623529e+01
255.835800	1.332920	city	6	1	1.042847	1.042847	0	1	0	0	CorrectCommission	1.004071	0.858167	0	0	4.641176e+01
257.168671	1.332854	city	2	1	1.320660	1.320660	0	1	0	0	CorrectCommission	0.156926	0.868082	0	0	4.658824e+01
258.501587	1.332934	city	4	1	1.536054	1.536054	0	1	0	0	CorrectCommission	1.057074	0.874197	0	0	4.676471e+01
259.821167	1.306268	mountain	5	0	0.000000	1.563374	1	0	0	0	CorrectOmission	1.171246	0.875394	0	0	4.694118e+01
261.127411	1.306180	city	5	1	1.601381	1.601381	0	1	0	0	CorrectCommission	1.330079	0.870975	0	0	4.711765e+01
262.453613	1.346228	city	3	1	1.848836	1.848836	0	1	0	0	CorrectCommission	2.364207	0.860796	0	0	4.729412e+01
263.793182	1.332893	city	5	1	1.389153	1.389153	0	1	0	0	CorrectCommission	0.443166	0.845338	0	0	4.747059e+01
265.139374	1.359522	city	7	1	1.508085	1.508085	0	1	0	0	CorrectCommission	0.940188	0.825718	0	0	4.764706e+01
266.465576	1.292851	city	3	1	1.225449	1.225449	0	1	0	0	CorrectCommission	0.240966	0.803426	0	0	4.782353e+01
267.758484	1.293012	city	10	1	1.220470	1.220470	0	1	0	0	CorrectCommission	0.261771	0.780236	0	0	48
269.051453	1.292889	city	9	1	1.225088	1.225088	0	1	0	0	CorrectCommission	0.242476	0.757954	0	0	4.817647e+01
270.351013	1.306236	city	5	1	1.112336	1.112336	0	1	0	0	CorrectCommission	0.713670	0.738367	0	0	4.835294e+01
271.697235	1.386235	city	4	1	1.008555	1.008555	0	1	0	0	CorrectCommission	1.147377	0.723178	1	0	4.852941e+01
273.056793	1.332889	city	10	1	1.097870	1.097870	0	1	0	0	CorrectCommission	0.774125	0.713951	1	0	4.870588e+01
274.383026	1.319546	city	5	1	1.017581	1.017581	0	1	0	0	CorrectCommission	1.109658	0.712200	1	0	4.888235e+01
275.702576	1.319589	city	3	1	1.127953	1.127953	0	1	0	0	CorrectCommission	0.648408	0.719269	1	0	4.905882e+01
277.028839	1.332878	city	6	1	1.183327	1.183327	0	1	0	0	CorrectCommission	0.416996	0.736266	0	0	4.923529e+01
278.355042	1.319577	city	1	1	1.181026	1.181026	0	1	0	0	CorrectCommission	0.426613	0.763833	0	0	4.941176e+01
279.667969	1.306242	city	6	1	1.423968	1.423968	0	1	0	0	CorrectCommission	0.588657	0.801901	0	0	4.958824e+01
281.007538	1.372883	city	3	1	1.198531	1.198531	0	1	0	0	CorrectCommission	0.353458	0.849465	0	0	4.976471e+01
282.400391	1.412872	city	5	1	1.335433	1.335433	0	1	0	0	CorrectCommission	0.218664	0.904441	0	0	4.994118e+01
283.779846	1.346048	city	2	1	1.060075	1.060075	0	1	0	0	CorrectCommission	0.932075	0.963616	0	0	5.011765e+01
285.112762	1.319741	city	10	1	1.089295	1.089295	0	1	0	0	CorrectCommission	0.809960	1.022846	0	0	5.029412e+01
286.439087	1.332893	city	8	1	1.051044	1.051044	0	1	0	0	CorrectCommission	0.969816	1.077446	0	0	5.047059e+01
287.785278	1.359530	city	1	1	1.059131	1.059131	0	1	0	0	CorrectCommission	0.936019	1.122675	0	0	5.064706e+01
289.124847	1.319571	city	4	1	1.763269	1.763269	0	1	0	0	CorrectCommission	2.006620	1.154360	0	0	5.082353e+01
292.377014	5.184814	break	0	0	0.000000	2.012776	0	0	0	0	ThoughtProbe	3.049324	1.169412	0	51	51
295.622620	1.306400	mountain	8	0	0.000000	1.934045	1	0	0	0	CorrectOmission	2.720301	1.166237	0	0	5.115000e+01
296.915619	1.279578	city	9	1	1.653469	1.653469	0	1	0	0	CorrectCommission	1.547757	1.145003	0	0	5.130000e+01
298.201874	1.292912	mountain	10	0	0.000000	1.297442	1	0	0	0	CorrectOmission	0.059898	1.107556	0	0	5.145000e+01
299.514771	1.332892	city	10	1	1.189781	1.189781	0	1	0	0	CorrectCommission	0.390025	1.057145	0	0	5.160000e+01
300.847656	1.332899	city	8	1	1.654302	1.654302	0	1	0	0	CorrectCommission	1.551237	0.997958	0	0	5.175000e+01
302.187164	1.346102	city	9	1	1.437385	1.437385	0	1	0	0	CorrectCommission	0.644729	0.934636	0	0	5.190000e+01
303.526733	1.333014	city	10	1	1.083710	1.083710	0	1	0	0	CorrectCommission	0.833300	0.871837	0	0	5.205000e+01
304.846344	1.306237	city	6	1	1.425149	1.425149	0	1	0	0	CorrectCommission	0.593593	0.813767	0	0	5.220000e+01
306.185913	1.372871	city	1	1	1.164170	1.164170	0	1	0	0	CorrectCommission	0.497053	0.763932	0	0	5.235000e+01
307.525452	1.306229	city	3	1	1.468178	1.468178	0	1	0	0	CorrectCommission	0.773415	0.724898	1	0	5.250000e+01
308.838348	1.319563	city	4	1	1.386356	1.386356	0	1	0	0	CorrectCommission	0.431475	0.698226	1	0	5.265000e+01
310.191254	1.386235	city	6	1	1.368345	1.368345	0	1	0	0	CorrectCommission	0.356205	0.684460	1	0	5.280000e+01
311.544067	1.319382	city	5	1	1.196709	1.196709	0	1	0	0	CorrectCommission	0.361069	0.683152	1	0	5.295000e+01
312.863617	1.319746	city	7	1	1.200025	1.200025	0	1	0	0	CorrectCommission	0.347212	0.692962	1	0	5.310000e+01
314.183258	1.319549	city	5	1	1.148205	1.148205	0	1	0	0	CorrectCommission	0.563771	0.711825	1	0	5.325000e+01
315.482819	1.279579	city	9	1	1.212691	1.212691	0	1	0	0	CorrectCommission	0.294283	0.737156	0	0	5.340000e+01
316.782410	1.319562	city	8	1	1.147454	1.147454	0	1	0	0	CorrectCommission	0.566912	0.766108	0	0	5.355000e+01
318.141968	1.399541	city	6	1	0.899778	0.899778	0	1	0	0	CorrectCommission	1.601965	0.795816	0	0	5.370000e+01
319.508087	1.332743	city	2	1	0.948448	0.948448	0	1	0	0	CorrectCommission	1.398570	0.823642	0	0	5.385000e+01
320.841003	1.333066	city	9	1	1.029422	1.029422	0	1	0	0	CorrectCommission	1.060172	0.847408	0	0	54
322.173981	1.332899	city	4	1	1.159276	1.159276	0	1	0	0	CorrectCommission	0.517507	0.865493	0	0	5.415000e+01
323.506866	1.332891	city	7	1	1.554721	1.554721	0	1	0	0	CorrectCommission	1.135085	0.876903	0	0	5.430000e+01
324.826416	1.306216	city	1	1	1.519244	1.519244	0	1	0	0	CorrectCommission	0.986821	0.881196	0	0	5.445000e+01
326.145966	1.332874	mountain	10	0	0.000000	1.526001	1	0	0	0	CorrectOmission	1.015060	0.878441	0	0	5.460000e+01
327.465546	1.306282	city	10	1	1.525730	1.525730	0	1	0	0	CorrectCommission	1.013928	0.869112	0	0	5.475000e+01
328.798370	1.359367	city	4	1	1.469168	1.469168	0	1	0	0	CorrectCommission	0.777552	0.853942	0	0	5.490000e+01
330.151276	1.346403	city	1	1	1.457582	1.457582	0	1	0	0	CorrectCommission	0.729132	0.833828	0	0	5.505000e+01
331.490906	1.332900	city	4	1	1.556080	1.556080	0	1	0	0	CorrectCommission	1.140763	0.809791	0	0	5.520000e+01
332.830383	1.346057	city	8	1	1.383441	1.383441	0	1	0	0	CorrectCommission	0.419294	0.782944	0	0	5.535000e+01
334.203217	1.399581	city	10	1	1.142411	1.142411	0	1	0	0	CorrectCommission	0.587985	0.754549	0	0	5.550000e+01
335.589508	1.372981	city	7	1	1.017836	1.017836	0	1	0	0	CorrectCommission	1.108594	0.725990	1	0	5.565000e+01
336.942444	1.332919	city	4	1	1.047591	1.047591	0	1	0	0	CorrectCommission	0.984246	0.698797	1	0	5.580000e+01
338.268677	1.319531	city	7	1	1.050800	1.050800	0	1	0	0	CorrectCommission	0.970833	0.674622	1	0	5.595000e+01
339.608215	1.359586	city	3	1	1.182260	1.182260	0	1	0	0	CorrectCommission	0.421457	0.655106	1	0	5.610000e+01
340.927795	1.279526	city	5	1	1.339830	1.339830	0	1	0	0	CorrectCommission	0.237039	0.641728	1	0	5.625000e+01
342.254028	1.372940	city	10	1	1.351854	1.351854	0	1	0	0	CorrectCommission	0.287291	0.635582	1	0	5.640000e+01
343.620270	1.359541	city	1	1	1.223969	1.223969	0	1	0	0	CorrectCommission	0.247152	0.637166	1	0	5.655000e+01
344.952972	1.305891	city	7	1	1.393387	1.393387	0	1	0	0	CorrectCommission	0.460858	0.646230	1	0	5.670000e+01
346.299194	1.386565	city	4	1	1.213365	1.213365	0	1	0	0	CorrectCommission	0.291464	0.661692	1	0	5.685000e+01
349.145020	4.305089	break	0	1	1.201353	1.201353	0	0	0	0	ThoughtProbe	0.341664	0.681662	1	57	57
351.944092	1.293046	city	7	1	1.670484	1.670484	0	1	0	0	CorrectCommission	1.618862	0.703622	1	0	5.667391e+01
353.263733	1.346245	city	6	1	1.469971	1.469971	0	1	0	0	CorrectCommission	0.780906	0.724623	1	0	5.634783e+01
354.623291	1.372863	city	9	1	1.307260	1.307260	0	1	0	0	CorrectCommission	0.100929	0.741711	0	0	5.602174e+01
356.029510	1.439545	city	4	1	1.090915	1.090915	0	1	0	0	CorrectCommission	0.803192	0.752218	0	0	5.569565e+01
357.435699	1.372886	mountain	1	1	0.952122	0.952122	0	0	1	0	CommissionError	1.383215	0.754097	0	0	5.536957e+01
358.788513	1.332733	city	8	1	0.879286	0.879286	0	1	0	0	CorrectCommission	1.687600	0.746208	0	0	5.504348e+01
360.134705	1.359626	city	3	1	1.028665	1.028665	0	1	0	0	CorrectCommission	1.063336	0.728485	1	0	5.471739e+01
361.467682	1.306324	city	4	1	1.069383	1.069383	0	1	0	0	CorrectCommission	0.893173	0.701956	1	0	5.439130e+01
362.780609	1.319563	city	9	1	1.089367	1.089367	0	1	0	0	CorrectCommission	0.809659	0.668604	1	0	5.406522e+01
364.093536	1.306245	city	10	1	1.234204	1.234204	0	1	0	0	CorrectCommission	0.204377	0.631094	1	0	5.373913e+01
365.386444	1.279572	city	7	1	1.442986	1.442986	0	1	0	0	CorrectCommission	0.668135	0.592443	1	0	5.341304e+01
366.752655	1.452857	city	9	1	1.377546	1.377546	0	1	0	0	CorrectCommission	0.394657	0.555593	1	0	5.308696e+01
368.138855	1.319548	mountain	7	0	0.000000	1.295991	1	0	0	0	CorrectOmission	0.053835	0.523084	1	0	5.276087e+01
369.458405	1.319562	city	2	1	1.256526	1.256526	0	1	0	0	CorrectCommission	0.111093	0.496751	1	0	5.243478e+01
370.771301	1.306257	city	9	1	1.317354	1.317354	0	1	0	0	CorrectCommission	0.143113	0.477550	1	0	5.210870e+01
372.097565	1.346220	city	3	1	1.175931	1.175931	0	1	0	0	CorrectCommission	0.447902	0.465533	1	0	5.178261e+01
373.423798	1.306240	city	8	1	1.186452	1.186452	0	1	0	0	CorrectCommission	0.403938	0.459927	1	0	5.145652e+01
374.736664	1.319501	city	2	1	1.130266	1.130266	0	1	0	0	CorrectCommission	0.638741	0.459339	1	0	5.113043e+01
376.082886	1.372952	city	5	1	1.251830	1.251830	0	1	0	0	CorrectCommission	0.130716	0.461993	1	0	5.080435e+01
377.429138	1.319539	mountain	8	1	0.974483	0.974483	0	0	1	0	CommissionError	1.289769	0.466012	1	0	5.047826e+01
378.782013	1.386217	city	4	1	1.291486	1.291486	0	1	0	0	CorrectCommission	0.035006	0.469685	1	0	5.015217e+01
380.154907	1.359568	city	2	1	1.220641	1.220641	0	1	0	0	CorrectCommission	0.261057	0.471797	1	0	4.982609e+01
381.481140	1.292911	city	4	1	1.459359	1.459359	0	1	0	0	CorrectCommission	0.736557	0.471714	1	0	4.950000e+01
382.800720	1.346237	city	5	1	1.520302	1.520302	0	1	0	0	CorrectCommission	0.991245	0.469522	1	0	4.917391e+01
384.146942	1.346208	city	1	1	1.422562	1.422562	0	1	0	0	CorrectCommission	0.582782	0.466128	1	0	4.884783e+01
385.539764	1.439462	city	4	1	1.395547	1.395547	0	1	0	0	CorrectCommission	0.469883	0.463133	1	0	4.852174e+01
386.921051	1.323103	city	3	1	1.248105	1.248105	0	1	0	0	CorrectCommission	0.146284	0.462698	1	0	4.819565e+01
388.227325	1.289421	city	10	1	1.402876	1.402876	0	1	0	0	CorrectCommission	0.500514	0.467296	1	0	4.786957e+01
389.531799	1.319578	city	8	1	1.427808	1.427808	0	1	0	0	CorrectCommission	0.604707	0.479402	1	0	4.754348e+01
390.871368	1.359549	city	2	1	1.295293	1.295293	0	1	0	0	CorrectCommission	0.050917	0.501169	1	0	4.721739e+01
392.224274	1.346228	city	8	1	1.281928	1.281928	0	1	0	0	CorrectCommission	0.004935	0.534130	1	0	4.689130e+01
393.543762	1.292749	city	4	1	1.378644	1.378644	0	1	0	0	CorrectCommission	0.399244	0.578916	1	0	4.656522e+01
394.889954	1.399677	city	9	1	1.237247	1.237247	0	1	0	0	CorrectCommission	0.191661	0.635097	1	0	4.623913e+01
396.262939	1.346253	city	3	1	1.334909	1.334909	0	1	0	0	CorrectCommission	0.216473	0.701228	1	0	4.591304e+01
397.595764	1.319395	mountain	10	1	1.367192	1.367192	0	0	1	0	CommissionError	0.351388	0.775008	0	0	4.558696e+01
398.915314	1.319732	city	7	1	1.478637	1.478637	0	1	0	0	CorrectCommission	0.817124	0.853594	0	0	4.526087e+01
400.301605	1.452852	city	1	1	1.636879	1.636879	0	1	0	0	CorrectCommission	1.478426	0.934041	0	0	4.493478e+01
401.701141	1.346225	city	9	1	1.723867	1.723867	0	1	0	0	CorrectCommission	1.841956	1.013686	0	0	4.460870e+01
403.040710	1.332893	city	5	1	1.405452	1.405452	0	1	0	0	CorrectCommission	0.511280	1.090579	0	0	4.428261e+01
404.406891	1.399497	city	2	1	1.615359	1.615359	0	1	0	0	CorrectCommission	1.388495	1.163697	0	0	4.395652e+01
405.773132	1.332938	city	7	0	0.000000	1.864257	0	0	0	1	OmissionError	2.428652	1.232875	0	0	4.363043e+01
407.092712	1.306241	city	10	1	1.853271	1.853271	0	1	0	0	CorrectCommission	2.382741	1.298654	0	0	4.330435e+01
408.445587	1.399540	city	8	1	1.283529	1.283529	0	1	0	0	CorrectCommission	0.001753	1.361913	0	0	4.297826e+01
409.818390	1.346050	city	10	1	0.882492	0.882492	0	1	0	0	CorrectCommission	1.674205	1.423380	0	0	4.265217e+01
411.137970	1.293078	city	4	1	1.176131	1.176131	0	1	0	0	CorrectCommission	0.447066	1.483025	0	0	4.232609e+01
414.983368	6.397712	break	0	1	1.019924	1.019924	0	0	0	0	ThoughtProbe	1.099868	1.539820	0	42	42
418.835327	1.306246	city	1	1	1.526226	1.526226	0	1	0	0	CorrectCommission	1.016002	1.591541	0	0	4.147059e+01
420.175018	1.373104	city	9	1	1.499119	1.499119	0	1	0	0	CorrectCommission	0.902721	1.634990	0	0	4.094118e+01
421.534637	1.346180	city	1	1	1.686449	1.686449	0	1	0	0	CorrectCommission	1.685582	1.666438	0	0	4.041176e+01
422.914185	1.412868	city	8	1	2.119736	2.119736	0	1	0	0	CorrectCommission	3.496315	1.682224	0	0	3.988235e+01
424.293732	1.346219	city	5	0	0.000000	2.200558	0	0	0	1	OmissionError	3.834077	1.679481	0	0	3.935294e+01
425.626617	1.319570	mountain	2	0	0.000000	2.043936	1	0	0	0	CorrectOmission	3.179544	1.656682	0	0	3.882353e+01
426.939514	1.306213	city	1	1	1.764890	1.764890	0	1	0	0	CorrectCommission	2.013392	1.613952	0	0	3.829412e+01
428.272400	1.359550	city	3	0	0.000000	1.478439	0	0	0	1	OmissionError	0.816294	1.553093	0	0	3.776471e+01
429.611969	1.319601	city	9	1	1.194150	1.194150	0	1	0	0	CorrectCommission	0.371764	1.477337	0	0	3.723529e+01
430.951538	1.359542	city	3	1	0.921593	0.921593	0	1	0	0	CorrectCommission	1.510799	1.390895	0	0	3.670588e+01
432.277771	1.292912	mountain	3	1	1.366475	1.366475	0	0	1	0	CommissionError	0.348393	1.298452	0	0	3.617647e+01
433.604004	1.359550	city	2	1	1.745995	1.745995	0	1	0	0	CorrectCommission	1.934428	1.204745	0	0	3.564706e+01
434.956879	1.346222	city	1	1	1.731214	1.731214	0	1	0	0	CorrectCommission	1.872659	1.114119	0	0	3.511765e+01
436.289703	1.319418	city	7	0	0.000000	1.322028	0	0	0	1	OmissionError	0.162645	1.030338	0	0	3.458824e+01
437.635925	1.373028	city	1	1	1.056669	1.056669	0	1	0	0	CorrectCommission	0.946308	0.956502	0	0	3.405882e+01
438.995544	1.346229	city	5	1	1.473368	1.473368	0	1	0	0	CorrectCommission	0.795106	0.894840	0	0	3.352941e+01
440.381775	1.426196	city	3	1	1.194238	1.194238	0	1	0	0	CorrectCommission	0.371399	0.846728	0	0	33
441.767975	1.346227	city	10	1	1.053760	1.053760	0	1	0	0	CorrectCommission	0.958465	0.812636	0	0	3.247059e+01
443.094116	1.306064	city	1	1	1.389448	1.389448	0	1	0	0	CorrectCommission	0.444397	0.792161	0	0	3.194118e+01
444.480316	1.466350	city	8	1	1.268214	1.268214	0	1	0	0	CorrectCommission	0.062248	0.784002	0	0	3.141176e+01
445.886566	1.346158	city	9	1	1.227541	1.227541	0	1	0	0	CorrectCommission	0.232223	0.786109	0	0	3.088235e+01
447.226135	1.332978	city	3	1	1.212789	1.212789	0	1	0	0	CorrectCommission	0.293870	0.795818	0	0	3.035294e+01
448.572388	1.359519	city	4	1	1.271600	1.271600	0	1	0	0	CorrectCommission	0.048096	0.810157	0	0	2.982353e+01
449.911957	1.319584	city	5	1	1.983394	1.983394	0	1	0	0	CorrectCommission	2.926536	0.826154	0	0	2.929412e+01
451.244843	1.346217	city	8	0	0.000000	1.714056	0	0	0	1	OmissionError	1.800954	0.841071	0	0	2.876471e+01
452.617706	1.399527	city	3	1	1.190342	1.190342	0	1	0	0	CorrectCommission	0.387679	0.852773	0	0	2.823529e+01
453.977264	1.319584	city	5	1	1.139009	1.139009	0	1	0	0	CorrectCommission	0.602201	0.859877	0	0	2.770588e+01
455.330170	1.386213	city	8	1	1.057994	1.057994	0	1	0	0	CorrectCommission	0.940769	0.861733	0	0	2.717647e+01
456.723053	1.399539	city	7	1	1.059426	1.059426	0	1	0	0	CorrectCommission	0.934786	0.858397	0	0	2.664706e+01
458.109253	1.372861	city	10	1	0.909479	0.909479	0	1	0	0	CorrectCommission	1.561425	0.850478	0	0	2.611765e+01
459.482086	1.372806	city	4	1	1.230093	1.230093	0	1	0	0	CorrectCommission	0.221559	0.838929	0	0	2.558824e+01
460.841644	1.346318	city	5	1	1.170750	1.170750	0	1	0	0	CorrectCommission	0.469555	0.824882	0	0	2.505882e+01
462.174591	1.319567	city	2	1	1.254171	1.254171	0	1	0	0	CorrectCommission	0.120934	0.809494	0	0	2.452941e+01
466.579834	7.490938	break	0	1	0.995600	0.995600	0	0	0	0	ThoughtProbe	1.201517	0.793830	0	24	24
470.991699	1.332801	city	1	1	1.672990	1.672990	0	1	0	0	CorrectCommission	1.629336	0.778792	0	0	2.423529e+01
472.444489	1.572726	city	5	0	0.000000	1.586745	0	0	0	1	OmissionError	1.268914	0.765180	0	0	2.447059e+01
473.877350	1.292996	city	9	1	1.228159	1.228159	0	1	0	0	CorrectCommission	0.229641	0.753609	0	0	2.470588e+01
475.183594	1.319542	city	4	1	1.088522	1.088522	0	1	0	0	CorrectCommission	0.813190	0.744470	0	0	2.494118e+01
476.496521	1.306261	city	6	1	1.320229	1.320229	0	1	0	0	CorrectCommission	0.155126	0.737904	0	0	2.517647e+01
477.802673	1.306086	mountain	10	0	0.000000	1.343023	1	0	0	0	CorrectOmission	0.250384	0.733754	0	0	2.541176e+01
479.148926	1.386383	city	9	1	1.226428	1.226428	0	1	0	0	CorrectCommission	0.236872	0.731620	1	0	2.564706e+01
480.515228	1.346216	city	3	1	1.039968	1.039968	0	1	0	0	CorrectCommission	1.016100	0.730961	1	0	2.588235e+01
481.888092	1.399550	city	9	1	0.976116	0.976116	0	1	0	0	CorrectCommission	1.282942	0.731148	1	0	2.611765e+01
483.287628	1.399535	city	3	1	1.024406	1.024406	0	1	0	0	CorrectCommission	1.081138	0.731717	1	0	2.635294e+01
484.660522	1.346224	mountain	8	0	0.000000	1.361641	1	0	0	0	CorrectOmission	0.328190	0.732541	1	0	2.658824e+01
485.986755	1.306213	city	6	1	1.647171	1.647171	0	1	0	0	CorrectCommission	1.521438	0.733887	0	0	2.682353e+01
487.306305	1.332899	city	7	1	1.540344	1.540344	0	1	0	0	CorrectCommission	1.075000	0.736438	0	0	2.705882e+01
488.705841	1.466185	city	6	1	1.342411	1.342411	0	1	0	0	CorrectCommission	0.247825	0.741280	0	0	2.729412e+01
490.092072	1.306300	city	5	1	1.287149	1.287149	0	1	0	0	CorrectCommission	0.016881	0.749699	0	0	2.752941e+01
491.451660	1.412831	city	9	1	1.338461	1.338461	0	1	0	0	CorrectCommission	0.231320	0.762977	0	0	2.776471e+01
492.844513	1.372877	city	10	1	1.089153	1.089153	0	1	0	0	CorrectCommission	0.810557	0.782246	0	0	28
494.210693	1.359533	city	1	1	0.904468	0.904468	0	1	0	0	CorrectCommission	1.582363	0.808381	0	0	2.823529e+01
495.550201	1.319467	city	10	1	1.085531	1.085531	0	1	0	0	CorrectCommission	0.825692	0.842050	0	0	2.847059e+01
496.889771	1.359651	city	3	1	1.286403	1.286403	0	1	0	0	CorrectCommission	0.013766	0.883856	0	0	2.870588e+01
498.229370	1.319586	city	10	1	1.460745	1.460745	0	1	0	0	CorrectCommission	0.742353	0.934579	0	0	2.894118e+01
499.622253	1.466186	city	4	1	1.530618	1.530618	0	1	0	0	CorrectCommission	1.034357	0.995402	0	0	2.917647e+01
501.048462	1.386189	city	3	1	1.256295	1.256295	0	1	0	0	CorrectCommission	0.112057	1.068347	0	0	2.941176e+01
502.408020	1.332915	city	2	1	0.778368	0.778368	0	1	0	0	CorrectCommission	2.109345	1.156539	0	0	2.964706e+01
503.727509	1.306070	city	3	1	1.403174	1.403174	0	1	0	0	CorrectCommission	0.501760	1.264156	0	0	2.988235e+01
505.060394	1.359723	city	8	1	1.757945	1.757945	0	1	0	0	CorrectCommission	1.984370	1.396413	0	0	3.011765e+01
506.446686	1.412861	city	6	1	2.133455	2.133455	0	1	0	0	CorrectCommission	3.553647	1.558892	0	0	3.035294e+01
507.839569	1.372886	city	5	1	1.394928	1.394928	0	1	0	0	CorrectCommission	0.467299	1.756805	0	0	3.058824e+01
509.212402	1.372782	city	1	1	1.336512	1.336512	0	1	0	0	CorrectCommission	0.223172	1.994100	0	0	3.082353e+01
510.558624	1.319659	city	10	0	0.000000	1.269992	0	0	0	1	OmissionError	0.054815	2.272250	0	0	3.105882e+01
511.878235	1.319550	city	4	0	0.000000	1.161965	0	0	0	1	OmissionError	0.506270	2.589500	0	0	3.129412e+01
513.197754	1.319568	city	10	1	0.979022	0.979022	0	1	0	0	CorrectCommission	1.270797	2.940458	0	0	3.152941e+01
514.583984	1.452875	city	5	1	0.687760	0.687760	0	1	0	0	CorrectCommission	2.488001	3.316245	0	0	3.176471e+01
518.069641	5.518342	break	0	0	0.000000	0.396497	0	0	0	0	ThoughtProbe	3.705205	3.705205	0	32	32
