onset	duration	trial_type	image_type	Press	ReactionTime	ReactionTime_Interpolated	CorrectOmission	CorrectCommission	CommissionError	OmissionError	response_type	nonsmoothVarianceTimeCourse	VarianceTimeCourse	In_the_Zone	ThoughtProbe	ThoughtProbe_Interpolated
0.652974	1.280512	city	8	1	1.337239	1.337239	0	1	0	0	CorrectCommission	0.308745	0.308745	1	0	38
1.939236	1.292013	city	6	1	1.265481	1.265481	0	1	0	0	CorrectCommission	0.063313	0.345659	1	0	38
3.224941	1.279395	city	8	1	0.935716	0.935716	0	1	0	0	CorrectCommission	1.773119	0.380061	1	0	38
4.511183	1.293089	city	5	1	1.417346	1.417346	0	1	0	0	CorrectCommission	0.724095	0.409769	1	0	38
5.797514	1.279574	city	10	1	1.175017	1.175017	0	1	0	0	CorrectCommission	0.532364	0.433378	1	0	38
7.077081	1.279559	city	9	1	1.246264	1.246264	0	1	0	0	CorrectCommission	0.162949	0.450347	1	0	38
8.356770	1.279818	city	4	1	1.090006	1.090006	0	1	0	0	CorrectCommission	0.973136	0.461078	1	0	38
9.636351	1.279343	city	10	1	1.127105	1.127105	0	1	0	0	CorrectCommission	0.780782	0.466731	1	0	38
10.929065	1.306086	city	9	1	1.309516	1.309516	0	1	0	0	CorrectCommission	0.165008	0.469025	1	0	38
12.221972	1.279728	city	7	1	1.340972	1.340972	0	1	0	0	CorrectCommission	0.328101	0.469921	1	0	38
13.501608	1.279544	city	9	1	1.190244	1.190244	0	1	0	0	CorrectCommission	0.453409	0.471230	1	0	38
14.781106	1.279452	mountain	4	0	0.000000	1.223575	1	0	0	0	CorrectOmission	0.280594	0.474361	1	0	38
16.060621	1.279577	city	8	1	1.289031	1.289031	0	1	0	0	CorrectCommission	0.058793	0.480123	1	0	38
17.340277	1.279735	city	5	1	1.234682	1.234682	0	1	0	0	CorrectCommission	0.223002	0.488664	1	0	38
18.619938	1.279589	mountain	1	0	0.000000	1.251444	1	0	0	0	CorrectOmission	0.136095	0.499526	1	0	38
19.906057	1.292648	city	6	1	1.209496	1.209496	0	1	0	0	CorrectCommission	0.353589	0.511841	1	0	38
21.192312	1.279860	city	7	1	0.979021	0.979021	0	1	0	0	CorrectCommission	1.548587	0.524578	1	0	38
22.472006	1.279528	city	6	1	1.128479	1.128479	0	1	0	0	CorrectCommission	0.773657	0.536804	1	0	38
23.751574	1.279609	city	3	1	1.070928	1.070928	0	1	0	0	CorrectCommission	1.072055	0.547931	1	0	38
25.031172	1.279588	city	9	1	1.287685	1.287685	0	1	0	0	CorrectCommission	0.051815	0.557837	1	0	38
26.310751	1.279569	city	1	1	1.197323	1.197323	0	1	0	0	CorrectCommission	0.416705	0.566912	1	0	38
27.590340	1.279608	city	4	1	1.497754	1.497754	0	1	0	0	CorrectCommission	1.141006	0.575926	1	0	38
28.872093	1.283897	city	3	1	1.306235	1.306235	0	1	0	0	CorrectCommission	0.147995	0.585896	1	0	38
30.151667	1.275251	city	10	1	1.226588	1.226588	0	1	0	0	CorrectCommission	0.264971	0.597921	1	0	38
31.429071	1.279558	city	9	1	1.235941	1.235941	0	1	0	0	CorrectCommission	0.216477	0.612914	1	0	38
32.708641	1.279580	city	4	1	1.175635	1.175635	0	1	0	0	CorrectCommission	0.529155	0.631538	1	0	38
33.988224	1.279585	city	6	1	1.127478	1.127478	0	1	0	0	CorrectCommission	0.778847	0.654083	1	0	38
35.267799	1.279570	city	4	1	1.124308	1.124308	0	1	0	0	CorrectCommission	0.795283	0.680472	1	0	38
36.547375	1.279580	city	3	1	1.021574	1.021574	0	1	0	0	CorrectCommission	1.327952	0.710246	1	0	38
37.826958	1.279583	mountain	3	0	0.000000	1.183924	1	0	0	0	CorrectOmission	0.486179	0.742601	1	0	38
39.106537	1.279574	city	4	1	1.343224	1.343224	0	1	0	0	CorrectCommission	0.339779	0.776527	0	0	38
40.386066	1.279490	city	2	1	1.231340	1.231340	0	1	0	0	CorrectCommission	0.240331	0.810818	0	0	38
41.665562	1.279502	city	3	1	1.138878	1.138878	0	1	0	0	CorrectCommission	0.719739	0.844214	0	0	38
42.951855	1.293085	city	8	1	0.978385	0.978385	0	1	0	0	CorrectCommission	1.551887	0.875488	0	0	38
44.238182	1.279569	city	9	1	1.075416	1.075416	0	1	0	0	CorrectCommission	1.048783	0.903570	0	0	38
45.517693	1.279449	city	6	1	1.076850	1.076850	0	1	0	0	CorrectCommission	1.041352	0.927674	0	0	38
46.797276	1.279716	city	10	1	0.865934	0.865934	0	1	0	0	CorrectCommission	2.134933	0.947343	0	0	38
48.076855	1.279441	city	4	1	1.231057	1.231057	0	1	0	0	CorrectCommission	0.241801	0.962449	0	0	38
49.363091	1.293036	city	7	1	1.081372	1.081372	0	1	0	0	CorrectCommission	1.017905	0.973255	0	0	38
50.009609	12.782479	break	0	0	0.000000	1.263434	0	0	0	0	ThoughtProbe	0.073925	0.980274	0	38	38
63.431873	1.279569	mountain	10	0	0.000000	1.538445	1	0	0	0	CorrectOmission	1.351986	0.984275	0	0	3.767647e+01
64.711456	1.279597	city	1	1	1.667606	1.667606	0	1	0	0	CorrectCommission	2.021678	0.986194	0	0	3.735294e+01
65.991043	1.279582	city	7	1	1.412119	1.412119	0	1	0	0	CorrectCommission	0.696997	0.987113	0	0	3.702941e+01
67.270569	1.279467	city	2	1	1.198625	1.198625	0	1	0	0	CorrectCommission	0.409958	0.988228	0	0	3.670588e+01
68.570099	1.319589	city	6	1	1.116163	1.116163	0	1	0	0	CorrectCommission	0.837518	0.990753	0	0	3.638235e+01
69.869705	1.279626	city	9	1	1.095129	1.095129	0	1	0	0	CorrectCommission	0.946573	0.995854	0	0	3.605882e+01
71.149330	1.279617	city	5	1	0.944413	0.944413	0	1	0	0	CorrectCommission	1.728024	1.004517	0	0	3.573529e+01
72.428925	1.279577	city	10	1	1.000686	1.000686	0	1	0	0	CorrectCommission	1.436258	1.017370	0	0	3.541176e+01
73.715157	1.292891	city	5	1	1.210327	1.210327	0	1	0	0	CorrectCommission	0.349282	1.034557	0	0	3.508824e+01
75.001396	1.279593	city	4	1	1.398350	1.398350	0	1	0	0	CorrectCommission	0.625605	1.055551	0	0	3.476471e+01
76.280983	1.279570	city	8	1	1.191705	1.191705	0	1	0	0	CorrectCommission	0.445835	1.079021	0	0	3.444118e+01
77.560562	1.279595	city	6	1	1.074143	1.074143	0	1	0	0	CorrectCommission	1.055384	1.102892	0	0	3.411765e+01
78.840149	1.279580	city	3	1	1.076494	1.076494	0	1	0	0	CorrectCommission	1.043195	1.124463	0	0	3.379412e+01
80.119728	1.279582	city	7	1	1.125134	1.125134	0	1	0	0	CorrectCommission	0.791004	1.140714	0	0	3.347059e+01
81.399315	1.279580	city	3	1	1.565252	1.565252	0	1	0	0	CorrectCommission	1.490977	1.148717	0	0	3.314706e+01
82.678825	1.279439	mountain	2	0	0.000000	1.691742	1	0	0	0	CorrectOmission	2.146819	1.146047	0	0	3.282353e+01
83.958397	1.279710	city	1	1	1.690444	1.690444	0	1	0	0	CorrectCommission	2.140087	1.131224	0	0	3.250000e+01
85.244705	1.292911	city	7	1	1.747197	1.747197	0	1	0	0	CorrectCommission	2.434349	1.103987	0	0	3.217647e+01
86.530876	1.279421	city	3	1	1.507635	1.507635	0	1	0	0	CorrectCommission	1.192240	1.065327	0	0	3.185294e+01
87.810440	1.279716	city	9	1	1.298793	1.298793	0	1	0	0	CorrectCommission	0.109405	1.017465	0	0	3.152941e+01
89.090088	1.279583	city	2	1	1.186988	1.186988	0	1	0	0	CorrectCommission	0.470291	0.963481	0	0	3.120588e+01
90.383003	1.306240	city	1	1	1.118777	1.118777	0	1	0	0	CorrectCommission	0.823961	0.906995	0	0	3.088235e+01
91.675919	1.279586	city	10	1	1.134878	1.134878	0	1	0	0	CorrectCommission	0.740480	0.851710	0	0	3.055882e+01
92.955482	1.279548	city	1	1	1.236648	1.236648	0	1	0	0	CorrectCommission	0.212810	0.801102	0	0	3.023529e+01
94.235054	1.279596	city	4	1	1.516147	1.516147	0	1	0	0	CorrectCommission	1.236375	0.758156	0	0	2.991176e+01
95.521309	1.292910	city	3	1	1.142453	1.142453	0	1	0	0	CorrectCommission	0.701204	0.725140	1	0	2.958824e+01
96.807564	1.279603	city	10	1	1.243494	1.243494	0	1	0	0	CorrectCommission	0.177311	0.703536	1	0	2.926471e+01
98.093773	1.292812	city	1	1	1.462730	1.462730	0	1	0	0	CorrectCommission	0.959408	0.693942	1	0	2.894118e+01
99.386604	1.292858	city	8	1	1.314185	1.314185	0	1	0	0	CorrectCommission	0.189213	0.696023	1	0	2.861765e+01
100.672844	1.279610	city	10	1	1.194521	1.194521	0	1	0	0	CorrectCommission	0.431235	0.708587	1	0	2.829412e+01
101.952446	1.279598	city	8	1	1.347740	1.347740	0	1	0	0	CorrectCommission	0.363196	0.729598	1	0	2.797059e+01
103.232079	1.279669	city	10	1	1.131752	1.131752	0	1	0	0	CorrectCommission	0.756689	0.756309	0	0	2.764706e+01
104.511696	1.279571	city	4	1	1.292640	1.292640	0	1	0	0	CorrectCommission	0.077503	0.785484	0	0	2.732353e+01
105.151482	12.195973	break	0	0	0.000000	1.427488	0	0	0	0	ThoughtProbe	0.776681	0.813698	0	27	27
117.987251	1.279584	city	9	0	0.000000	1.529234	0	0	0	1	OmissionError	1.304229	0.837631	0	0	27
119.266762	1.279437	city	7	0	0.000000	1.590817	0	0	0	1	OmissionError	1.623529	0.854486	0	0	27
120.546349	1.279739	city	5	1	1.605172	1.605172	0	1	0	0	CorrectCommission	1.697962	0.862290	0	0	27
121.826012	1.279588	mountain	9	0	0.000000	1.565239	1	0	0	0	CorrectOmission	1.490910	0.860096	0	0	27
123.105583	1.279563	city	6	1	1.451846	1.451846	0	1	0	0	CorrectCommission	0.902979	0.848064	0	0	27
124.385155	1.279567	city	4	1	1.245825	1.245825	0	1	0	0	CorrectCommission	0.165227	0.827386	0	0	27
125.671402	1.292929	city	7	1	0.952194	0.952194	0	1	0	0	CorrectCommission	1.687683	0.800024	0	0	27
126.957642	1.279560	city	5	1	1.239119	1.239119	0	1	0	0	CorrectCommission	0.199995	0.768387	0	0	27
128.237137	1.279428	city	2	1	1.301923	1.301923	0	1	0	0	CorrectCommission	0.125638	0.735061	1	0	27
129.530045	1.306401	city	7	1	1.256917	1.256917	0	1	0	0	CorrectCommission	0.107717	0.702420	1	0	27
130.822983	1.279464	mountain	3	1	1.078978	1.078978	0	0	1	0	CommissionError	1.030315	0.672434	1	0	27
132.102539	1.279631	city	7	1	1.561735	1.561735	0	1	0	0	CorrectCommission	1.472744	0.646513	1	0	27
133.382080	1.279473	city	3	1	1.347419	1.347419	0	1	0	0	CorrectCommission	0.361528	0.625455	1	0	27
134.661682	1.279736	city	2	1	1.361074	1.361074	0	1	0	0	CorrectCommission	0.432328	0.609481	1	0	27
135.947998	1.292886	city	1	1	1.243820	1.243820	0	1	0	0	CorrectCommission	0.175624	0.598257	1	0	27
137.234253	1.279608	city	10	1	1.242588	1.242588	0	1	0	0	CorrectCommission	0.182012	0.591025	1	0	27
138.513748	1.279405	city	2	1	1.298817	1.298817	0	1	0	0	CorrectCommission	0.109532	0.586759	1	0	27
139.800003	1.293093	city	10	1	1.478249	1.478249	0	1	0	0	CorrectCommission	1.039874	0.584339	1	0	27
141.086166	1.279243	city	2	1	1.555426	1.555426	0	1	0	0	CorrectCommission	1.440034	0.582718	1	0	27
142.365753	1.279914	city	4	1	1.343682	1.343682	0	1	0	0	CorrectCommission	0.342155	0.581114	1	0	27
143.645447	1.279484	city	7	1	1.391434	1.391434	0	1	0	0	CorrectCommission	0.589746	0.579175	1	0	27
144.924942	1.279512	city	2	1	1.395938	1.395938	0	1	0	0	CorrectCommission	0.613100	0.576978	1	0	27
146.211227	1.293047	city	3	1	1.370514	1.370514	0	1	0	0	CorrectCommission	0.481277	0.575052	1	0	27
147.497543	1.279572	city	5	1	1.335059	1.335059	0	1	0	0	CorrectCommission	0.297446	0.574291	1	0	27
148.777130	1.279610	city	10	1	0.979401	0.979401	0	1	0	0	CorrectCommission	1.546619	0.575812	1	0	27
150.056717	1.279578	city	8	1	1.248275	1.248275	0	1	0	0	CorrectCommission	0.152526	0.580728	1	0	27
151.342941	1.292857	mountain	1	1	1.236275	1.236275	0	0	1	0	CommissionError	0.214742	0.589995	1	0	27
152.629181	1.279625	city	1	1	1.231668	1.231668	0	1	0	0	CorrectCommission	0.238629	0.604188	1	0	27
153.922119	1.306240	city	7	1	1.263004	1.263004	0	1	0	0	CorrectCommission	0.076158	0.623353	1	0	27
155.215012	1.279555	city	1	1	1.194434	1.194434	0	1	0	0	CorrectCommission	0.431685	0.647011	1	0	27
156.494583	1.279606	city	9	1	1.396364	1.396364	0	1	0	0	CorrectCommission	0.615305	0.674141	1	0	27
157.774170	1.279553	city	7	1	1.571055	1.571055	0	1	0	0	CorrectCommission	1.521068	0.703313	1	0	27
159.060410	1.292936	city	8	1	1.457367	1.457367	0	1	0	0	CorrectCommission	0.931604	0.732793	1	0	27
160.346603	1.279435	city	2	1	1.182729	1.182729	0	1	0	0	CorrectCommission	0.492376	0.760771	0	0	27
161.626129	1.279634	city	7	1	1.091223	1.091223	0	1	0	0	CorrectCommission	0.966825	0.785478	0	0	27
162.912445	1.292993	city	8	1	1.145254	1.145254	0	1	0	0	CorrectCommission	0.686681	0.805292	0	0	27
164.198730	1.279578	city	10	1	1.085296	1.085296	0	1	0	0	CorrectCommission	0.997557	0.818856	0	0	27
165.478317	1.279577	city	8	1	1.455539	1.455539	0	1	0	0	CorrectCommission	0.922125	0.825099	0	0	27
166.784515	1.332828	city	5	1	1.458082	1.458082	0	1	0	0	CorrectCommission	0.935311	0.823321	0	0	27
167.450928	11.369653	break	0	0	0.000000	1.473591	0	0	0	0	ThoughtProbe	1.015723	0.813192	0	27	27
179.460358	1.279563	city	3	1	1.478189	1.478189	0	1	0	0	CorrectCommission	1.039564	0.794795	0	0	2.679412e+01
180.753189	1.306101	city	1	1	1.448000	1.448000	0	1	0	0	CorrectCommission	0.883037	0.768672	0	0	2.658824e+01
182.052689	1.292900	city	2	1	1.191739	1.191739	0	1	0	0	CorrectCommission	0.445660	0.735793	1	0	2.638235e+01
183.339005	1.279710	city	8	1	1.036888	1.036888	0	1	0	0	CorrectCommission	1.248551	0.697547	1	0	2.617647e+01
184.631989	1.306276	city	3	1	0.989267	0.989267	0	1	0	0	CorrectCommission	1.495461	0.655616	1	0	2.597059e+01
185.964874	1.359501	city	4	1	1.283200	1.283200	0	1	0	0	CorrectCommission	0.028562	0.611891	1	0	2.576471e+01
187.291092	1.292923	city	5	1	1.240881	1.240881	0	1	0	0	CorrectCommission	0.190860	0.568337	1	0	2.555882e+01
188.590683	1.306252	city	3	1	1.335307	1.335307	0	1	0	0	CorrectCommission	0.298731	0.526811	1	0	2.535294e+01
189.883606	1.279594	mountain	9	0	0.000000	1.359238	1	0	0	0	CorrectOmission	0.422812	0.488936	1	0	2.514706e+01
191.163177	1.279563	city	2	1	1.310548	1.310548	0	1	0	0	CorrectCommission	0.170355	0.455989	1	0	2.494118e+01
192.442749	1.279584	city	10	1	1.187109	1.187109	0	1	0	0	CorrectCommission	0.469667	0.428873	1	0	2.473529e+01
193.742340	1.319598	city	1	1	1.260862	1.260862	0	1	0	0	CorrectCommission	0.087261	0.408094	1	0	2.452941e+01
195.041916	1.279539	city	4	1	1.407341	1.407341	0	1	0	0	CorrectCommission	0.672221	0.393812	1	0	2.432353e+01
196.321487	1.279610	city	5	1	1.230861	1.230861	0	1	0	0	CorrectCommission	0.242816	0.385873	1	0	2.411765e+01
197.601089	1.279576	city	3	1	1.183241	1.183241	0	1	0	0	CorrectCommission	0.489722	0.383937	1	0	2.391176e+01
198.887314	1.292878	city	7	1	1.202405	1.202405	0	1	0	0	CorrectCommission	0.390359	0.387495	1	0	2.370588e+01
200.180206	1.292912	mountain	4	0	0.000000	1.297002	1	0	0	0	CorrectOmission	0.100121	0.395865	1	0	2.350000e+01
201.466446	1.279562	city	9	1	1.354655	1.354655	0	1	0	0	CorrectCommission	0.399046	0.408274	1	0	2.329412e+01
202.752686	1.292938	city	10	1	1.262986	1.262986	0	1	0	0	CorrectCommission	0.076251	0.423849	1	0	2.308824e+01
204.038818	1.279307	city	2	1	1.244156	1.244156	0	1	0	0	CorrectCommission	0.173878	0.441683	1	0	2.288235e+01
205.318390	1.279857	city	6	1	1.405697	1.405697	0	1	0	0	CorrectCommission	0.663699	0.460900	1	0	2.267647e+01
206.598022	1.279410	city	7	1	1.230072	1.230072	0	1	0	0	CorrectCommission	0.246905	0.480718	1	0	2.247059e+01
207.890945	1.306413	city	1	1	0.990971	0.990971	0	1	0	0	CorrectCommission	1.486628	0.500574	1	0	2.226471e+01
209.183868	1.279436	city	4	1	1.449290	1.449290	0	1	0	0	CorrectCommission	0.889723	0.520079	1	0	2.205882e+01
210.470093	1.293024	city	10	1	1.276163	1.276163	0	1	0	0	CorrectCommission	0.007929	0.539133	1	0	2.185294e+01
211.769699	1.306170	city	2	1	1.209927	1.209927	0	1	0	0	CorrectCommission	0.351358	0.557799	1	0	2.164706e+01
213.069260	1.292970	city	5	1	1.193911	1.193911	0	1	0	0	CorrectCommission	0.434400	0.576194	1	0	2.144118e+01
214.355545	1.279585	city	2	1	1.131201	1.131201	0	1	0	0	CorrectCommission	0.759544	0.594446	1	0	2.123529e+01
215.635132	1.279583	city	9	1	1.190291	1.190291	0	1	0	0	CorrectCommission	0.453166	0.612526	1	0	2.102941e+01
216.921295	1.292753	city	1	1	1.147827	1.147827	0	1	0	0	CorrectCommission	0.673338	0.630209	1	0	2.082353e+01
218.207458	1.279578	city	2	1	1.460312	1.460312	0	1	0	0	CorrectCommission	0.946871	0.647012	1	0	2.061765e+01
219.487122	1.279752	city	6	1	1.294569	1.294569	0	1	0	0	CorrectCommission	0.087506	0.662244	1	0	2.041176e+01
220.793442	1.332872	city	4	1	1.241645	1.241645	0	1	0	0	CorrectCommission	0.186902	0.675096	1	0	2.020588e+01
221.459869	12.435933	break	0	0	0.000000	1.517282	0	0	0	0	ThoughtProbe	1.242259	0.684726	1	20	20
234.535583	1.279557	city	5	1	1.667408	1.667408	0	1	0	0	CorrectCommission	2.020652	0.690361	1	0	2.025000e+01
235.815079	1.279431	city	10	1	1.237950	1.237950	0	1	0	0	CorrectCommission	0.206059	0.691423	1	0	2.050000e+01
237.094666	1.279745	city	4	1	1.399110	1.399110	0	1	0	0	CorrectCommission	0.629544	0.687646	1	0	2.075000e+01
238.374237	1.279415	city	1	1	1.461101	1.461101	0	1	0	0	CorrectCommission	0.950964	0.678987	1	0	21
239.653656	1.279411	city	8	1	1.232431	1.232431	0	1	0	0	CorrectCommission	0.234674	0.665683	1	0	2.125000e+01
240.933319	1.279914	city	6	1	1.142175	1.142175	0	1	0	0	CorrectCommission	0.702646	0.648209	1	0	2.150000e+01
242.226456	1.306360	mountain	10	0	0.000000	1.360710	1	0	0	0	CorrectOmission	0.430442	0.627193	1	0	2.175000e+01
243.519348	1.279435	city	7	1	1.536964	1.536964	0	1	0	0	CorrectCommission	1.344309	0.603420	1	0	22
244.805450	1.292748	city	1	1	1.319867	1.319867	0	1	0	0	CorrectCommission	0.218677	0.577753	1	0	2.225000e+01
246.091705	1.279765	mountain	1	1	1.455131	1.455131	0	0	1	0	CommissionError	0.920011	0.551209	1	0	2.250000e+01
247.377945	1.292731	city	5	1	1.204517	1.204517	0	1	0	0	CorrectCommission	0.379407	0.524798	1	0	2.275000e+01
248.664185	1.279728	city	8	1	1.236509	1.236509	0	1	0	0	CorrectCommission	0.213531	0.499598	1	0	23
249.943832	1.279581	city	4	1	1.130418	1.130418	0	1	0	0	CorrectCommission	0.763607	0.476674	1	0	2.325000e+01
251.223434	1.279602	city	9	1	1.236101	1.236101	0	1	0	0	CorrectCommission	0.215648	0.456999	1	0	2.350000e+01
252.502930	1.279392	city	1	1	1.362200	1.362200	0	1	0	0	CorrectCommission	0.438168	0.441437	1	0	2.375000e+01
253.782440	1.279647	mountain	7	0	0.000000	1.305267	1	0	0	0	CorrectOmission	0.142973	0.430610	1	0	24
255.062119	1.279691	city	2	1	1.243077	1.243077	0	1	0	0	CorrectCommission	0.179474	0.424930	1	0	2.425000e+01
256.341705	1.279495	city	5	1	1.353409	1.353409	0	1	0	0	CorrectCommission	0.392586	0.424522	1	0	2.450000e+01
257.634521	1.306149	city	9	1	1.348339	1.348339	0	1	0	0	CorrectCommission	0.366300	0.429231	1	0	2.475000e+01
258.947479	1.319744	city	2	1	1.163769	1.163769	0	1	0	0	CorrectCommission	0.590684	0.438657	1	0	25
260.247070	1.279468	city	5	1	1.231807	1.231807	0	1	0	0	CorrectCommission	0.237907	0.452183	1	0	2.525000e+01
261.526672	1.279692	city	3	1	1.138317	1.138317	0	1	0	0	CorrectCommission	0.722649	0.469007	1	0	2.550000e+01
262.812958	1.292898	city	7	1	1.304165	1.304165	0	1	0	0	CorrectCommission	0.137262	0.488122	1	0	2.575000e+01
264.125763	1.332715	city	4	1	1.159532	1.159532	0	1	0	0	CorrectCommission	0.612652	0.508508	1	0	26
265.431976	1.279741	city	9	1	1.413978	1.413978	0	1	0	0	CorrectCommission	0.706632	0.529090	1	0	2.625000e+01
266.718231	1.292747	city	10	1	1.270127	1.270127	0	1	0	0	CorrectCommission	0.039223	0.548862	1	0	2.650000e+01
268.011139	1.293093	city	9	1	1.161362	1.161362	0	1	0	0	CorrectCommission	0.603162	0.567017	1	0	2.675000e+01
269.297424	1.279472	city	8	1	1.142710	1.142710	0	1	0	0	CorrectCommission	0.699869	0.583021	1	0	27
270.583679	1.293003	city	10	1	0.972678	0.972678	0	1	0	0	CorrectCommission	1.581475	0.596789	1	0	2.725000e+01
271.876556	1.292752	city	3	1	1.185273	1.185273	0	1	0	0	CorrectCommission	0.479187	0.608697	1	0	2.750000e+01
273.169373	1.292910	city	8	1	1.336378	1.336378	0	1	0	0	CorrectCommission	0.304286	0.619700	1	0	2.775000e+01
274.455566	1.279462	city	2	1	1.230882	1.230882	0	1	0	0	CorrectCommission	0.242708	0.631183	1	0	28
275.741882	1.293175	city	6	1	1.476699	1.476699	0	1	0	0	CorrectCommission	1.031835	0.644846	1	0	2.825000e+01
277.041595	1.306235	city	7	1	1.542857	1.542857	0	1	0	0	CorrectCommission	1.374863	0.662461	1	0	2.850000e+01
278.341064	1.292744	city	8	1	1.269712	1.269712	0	1	0	0	CorrectCommission	0.041375	0.685565	1	0	2.875000e+01
279.627319	1.279762	city	10	1	1.134605	1.134605	0	1	0	0	CorrectCommission	0.741894	0.715206	1	0	29
280.933655	1.332858	city	3	1	1.287514	1.287514	0	1	0	0	CorrectCommission	0.050928	0.751572	0	0	2.925000e+01
282.239868	1.279619	city	2	1	1.284504	1.284504	0	1	0	0	CorrectCommission	0.035320	0.793885	0	0	2.950000e+01
283.519409	1.279420	city	5	1	1.305630	1.305630	0	1	0	0	CorrectCommission	0.144858	0.840312	0	0	2.975000e+01
284.159119	8.637316	break	0	0	0.000000	1.513677	0	0	0	0	ThoughtProbe	1.223567	0.888109	0	30	30
293.436218	1.279579	city	10	1	1.611174	1.611174	0	1	0	0	CorrectCommission	1.729078	0.933876	0	0	2.973913e+01
294.742432	1.332868	city	4	1	1.300648	1.300648	0	1	0	0	CorrectCommission	0.119025	0.974030	0	0	2.947826e+01
296.088654	1.359576	city	8	1	0.903318	0.903318	0	1	0	0	CorrectCommission	1.941101	1.005279	0	0	2.921739e+01
297.428162	1.319403	mountain	5	0	0.000000	0.807549	1	0	0	0	CorrectOmission	2.437656	1.024980	0	0	2.895652e+01
298.727661	1.279629	city	4	0	0.000000	0.916480	0	0	0	1	OmissionError	1.872855	1.031555	0	0	2.869565e+01
300.007324	1.279679	mountain	7	0	0.000000	1.133252	1	0	0	0	CorrectOmission	0.748910	1.024681	0	0	2.843478e+01
301.286957	1.279577	mountain	8	0	0.000000	1.361004	1	0	0	0	CorrectOmission	0.431966	1.005249	0	0	2.817391e+01
302.566528	1.279593	city	7	1	1.502876	1.502876	0	1	0	0	CorrectCommission	1.167561	0.975289	0	0	2.791304e+01
303.846069	1.279495	city	5	1	1.462007	1.462007	0	1	0	0	CorrectCommission	0.955661	0.937689	0	0	2.765217e+01
305.138977	1.306306	city	10	1	1.438860	1.438860	0	1	0	0	CorrectCommission	0.835645	0.895989	0	0	2.739130e+01
306.431915	1.279589	city	4	1	1.464897	1.464897	0	1	0	0	CorrectCommission	0.970644	0.853988	0	0	2.713043e+01
307.718201	1.292960	city	3	1	1.105796	1.105796	0	1	0	0	CorrectCommission	0.891269	0.815492	0	0	2.686957e+01
309.024445	1.319526	city	1	1	1.062507	1.062507	0	1	0	0	CorrectCommission	1.115717	0.783968	0	0	2.660870e+01
310.330658	1.292878	city	8	1	1.248992	1.248992	0	1	0	0	CorrectCommission	0.148809	0.762264	0	0	2.634783e+01
311.643524	1.332901	city	3	1	1.232391	1.232391	0	1	0	0	CorrectCommission	0.234880	0.752345	0	0	2.608696e+01
312.956451	1.292936	city	10	1	1.320628	1.320628	0	1	0	0	CorrectCommission	0.222621	0.755048	0	0	2.582609e+01
314.249359	1.292882	city	3	1	1.350665	1.350665	0	1	0	0	CorrectCommission	0.378361	0.770018	0	0	2.556522e+01
315.535614	1.279599	city	5	1	1.188119	1.188119	0	1	0	0	CorrectCommission	0.464428	0.795667	0	0	2.530435e+01
316.815186	1.279564	city	3	1	1.087756	1.087756	0	1	0	0	CorrectCommission	0.984802	0.829354	0	0	2.504348e+01
318.121490	1.333077	city	5	1	1.241634	1.241634	0	1	0	0	CorrectCommission	0.186959	0.867598	0	0	2.478261e+01
319.454407	1.332734	city	7	1	1.047128	1.047128	0	1	0	0	CorrectCommission	1.195457	0.906532	0	0	2.452174e+01
320.767212	1.292881	city	4	1	1.149522	1.149522	0	1	0	0	CorrectCommission	0.664549	0.942284	0	0	2.426087e+01
322.066711	1.306108	city	6	1	0.894257	0.894257	0	1	0	0	CorrectCommission	1.988081	0.971504	0	0	24
323.359619	1.279714	city	10	1	0.910918	0.910918	0	1	0	0	CorrectCommission	1.901698	0.991697	0	0	2.373913e+01
324.645935	1.292898	mountain	9	1	0.771480	0.771480	0	0	1	0	CommissionError	2.624671	1.001485	0	0	2.347826e+01
325.932098	1.279451	city	10	1	1.298490	1.298490	0	1	0	0	CorrectCommission	0.107836	1.000610	0	0	2.321739e+01
327.218292	1.292950	city	9	1	1.139863	1.139863	0	1	0	0	CorrectCommission	0.714631	0.989944	0	0	2.295652e+01
328.524597	1.319657	city	3	1	1.210709	1.210709	0	1	0	0	CorrectCommission	0.347299	0.971114	0	0	2.269565e+01
329.837494	1.306095	city	8	1	1.006148	1.006148	0	1	0	0	CorrectCommission	1.407937	0.946295	0	0	2.243478e+01
331.130341	1.279650	city	9	1	1.352687	1.352687	0	1	0	0	CorrectCommission	0.388846	0.917775	0	0	2.217391e+01
332.423340	1.306306	city	3	1	0.998412	0.998412	0	1	0	0	CorrectCommission	1.448046	0.887816	0	0	2.191304e+01
333.716278	1.279600	city	1	1	1.412476	1.412476	0	1	0	0	CorrectCommission	0.698847	0.858372	0	0	2.165217e+01
334.995880	1.279559	city	6	1	1.538607	1.538607	0	1	0	0	CorrectCommission	1.352828	0.831015	0	0	2.139130e+01
336.295349	1.319421	city	8	1	1.165516	1.165516	0	1	0	0	CorrectCommission	0.581622	0.806865	0	0	2.113043e+01
337.615143	1.320166	city	5	1	1.259289	1.259289	0	1	0	0	CorrectCommission	0.095417	0.786633	0	0	2.086957e+01
338.934784	1.319130	city	7	1	1.270524	1.270524	0	1	0	0	CorrectCommission	0.037164	0.770672	0	0	2.060870e+01
340.254120	1.319545	city	2	1	1.120924	1.120924	0	1	0	0	CorrectCommission	0.812828	0.759018	0	0	2.034783e+01
341.553711	1.279602	city	7	1	0.867407	0.867407	0	1	0	0	CorrectCommission	2.127296	0.751439	0	0	2.008696e+01
342.833282	1.279550	city	3	1	1.152841	1.152841	0	1	0	0	CorrectCommission	0.647341	0.747516	1	0	1.982609e+01
344.119446	1.292749	city	5	1	1.243916	1.243916	0	1	0	0	CorrectCommission	0.175123	0.746739	1	0	1.956522e+01
345.432343	1.333058	city	3	1	1.248903	1.248903	0	1	0	0	CorrectCommission	0.149266	0.748440	0	0	1.930435e+01
346.738678	1.279604	city	6	1	1.468324	1.468324	0	1	0	0	CorrectCommission	0.988412	0.751844	0	0	1.904348e+01
348.024902	1.292887	city	7	1	1.418460	1.418460	0	1	0	0	CorrectCommission	0.729874	0.756014	0	0	1.878261e+01
349.311066	1.279438	city	1	1	1.017944	1.017944	0	1	0	0	CorrectCommission	1.346775	0.759923	0	0	1.852174e+01
350.590637	1.279675	city	7	1	1.213518	1.213518	0	1	0	0	CorrectCommission	0.332736	0.762419	0	0	1.826087e+01
351.230469	8.423918	break	0	0	0.000000	1.150072	0	0	0	0	ThoughtProbe	0.661699	0.762358	0	18	18
360.314178	1.319586	city	8	1	1.174522	1.174522	0	1	0	0	CorrectCommission	0.534930	0.758615	0	0	1.785294e+01
361.613831	1.279704	city	6	1	1.633782	1.633782	0	1	0	0	CorrectCommission	1.846302	0.750260	0	0	1.770588e+01
362.900085	1.292807	city	1	1	1.314623	1.314623	0	1	0	0	CorrectCommission	0.191486	0.736583	1	0	1.755882e+01
364.186279	1.279563	mountain	4	0	0.000000	1.441134	1	0	0	0	CorrectOmission	0.847437	0.717293	1	0	1.741176e+01
365.465759	1.279412	city	6	1	1.589184	1.589184	0	1	0	0	CorrectCommission	1.615065	0.692431	1	0	1.726471e+01
366.758575	1.306259	city	5	1	1.334642	1.334642	0	1	0	0	CorrectCommission	0.295281	0.662480	1	0	1.711765e+01
368.051575	1.279716	city	9	1	1.372116	1.372116	0	1	0	0	CorrectCommission	0.489581	0.628354	1	0	1.697059e+01
369.344574	1.306267	city	7	1	1.213873	1.213873	0	1	0	0	CorrectCommission	0.330895	0.591300	1	0	1.682353e+01
370.657471	1.319532	city	10	1	1.107342	1.107342	0	1	0	0	CorrectCommission	0.883250	0.552843	1	0	1.667647e+01
371.957062	1.279647	city	5	1	1.076133	1.076133	0	1	0	0	CorrectCommission	1.045068	0.514684	1	0	1.652941e+01
373.236664	1.279538	city	2	1	1.284441	1.284441	0	1	0	0	CorrectCommission	0.034993	0.478617	1	0	1.638235e+01
374.522766	1.292720	city	5	1	1.246065	1.246065	0	1	0	0	CorrectCommission	0.163983	0.446395	1	0	1.623529e+01
375.829010	1.319753	city	4	1	1.228560	1.228560	0	1	0	0	CorrectCommission	0.254746	0.419629	1	0	1.608824e+01
377.128693	1.279577	mountain	2	0	0.000000	1.287353	1	0	0	0	CorrectOmission	0.050092	0.399687	1	0	1.594118e+01
378.408264	1.279594	city	6	1	1.361266	1.361266	0	1	0	0	CorrectCommission	0.433324	0.387700	1	0	1.579412e+01
379.701172	1.306221	city	9	1	1.389119	1.389119	0	1	0	0	CorrectCommission	0.577743	0.384469	1	0	1.564706e+01
381.000732	1.292915	city	6	1	1.246350	1.246350	0	1	0	0	CorrectCommission	0.162504	0.390447	1	0	1.550000e+01
382.306976	1.319539	city	5	1	1.264273	1.264273	0	1	0	0	CorrectCommission	0.069574	0.405710	1	0	1.535294e+01
383.606537	1.279602	city	9	1	1.284815	1.284815	0	1	0	0	CorrectCommission	0.036932	0.429952	1	0	1.520588e+01
384.899384	1.306071	city	6	1	1.152437	1.152437	0	1	0	0	CorrectCommission	0.649439	0.462474	1	0	1.505882e+01
386.198853	1.292886	city	9	1	1.260815	1.260815	0	1	0	0	CorrectCommission	0.087505	0.502220	1	0	1.491176e+01
387.485168	1.279773	city	7	1	1.373581	1.373581	0	1	0	0	CorrectCommission	0.497179	0.547837	1	0	1.476471e+01
388.778198	1.306235	city	10	1	1.103391	1.103391	0	1	0	0	CorrectCommission	0.903738	0.597701	1	0	1.461765e+01
390.091064	1.319541	city	2	1	1.137883	1.137883	0	1	0	0	CorrectCommission	0.724899	0.650021	1	0	1.447059e+01
391.390564	1.279433	city	1	1	1.388355	1.388355	0	1	0	0	CorrectCommission	0.573782	0.703022	1	0	1.432353e+01
392.690155	1.319734	city	6	1	1.406309	1.406309	0	1	0	0	CorrectCommission	0.666868	0.754986	0	0	1.417647e+01
393.996399	1.292748	city	7	1	1.333780	1.333780	0	1	0	0	CorrectCommission	0.290815	0.804393	0	0	1.402941e+01
395.289276	1.293046	city	10	1	1.437320	1.437320	0	1	0	0	CorrectCommission	0.827658	0.850107	0	0	1.388235e+01
396.582275	1.292906	city	3	1	1.617961	1.617961	0	1	0	0	CorrectCommission	1.764271	0.891369	0	0	1.373529e+01
397.868408	1.279418	city	4	1	1.738818	1.738818	0	1	0	0	CorrectCommission	2.390907	0.927866	0	0	1.358824e+01
399.147980	1.279666	city	3	1	1.379250	1.379250	0	1	0	0	CorrectCommission	0.526570	0.959666	0	0	1.344118e+01
400.440979	1.306339	city	8	1	1.098330	1.098330	0	1	0	0	CorrectCommission	0.929980	0.987138	0	0	1.329412e+01
401.760529	1.332783	city	7	1	1.280496	1.280496	0	1	0	0	CorrectCommission	0.014538	1.010690	0	0	1.314706e+01
402.426910	9.876691	break	0	0	0.000000	1.420585	0	0	0	0	ThoughtProbe	0.740891	1.030637	0	13	13
412.943481	1.279716	city	4	1	1.503997	1.503997	0	1	0	0	CorrectCommission	1.173377	1.046997	0	0	1.315217e+01
414.256439	1.346252	city	1	1	1.516132	1.516132	0	1	0	0	CorrectCommission	1.236296	1.059451	0	0	1.330435e+01
415.575958	1.292753	mountain	1	0	0.000000	1.533097	1	0	0	0	CorrectOmission	1.324259	1.067355	0	0	1.345652e+01
416.868835	1.293034	mountain	2	0	0.000000	1.546705	1	0	0	0	CorrectOmission	1.394812	1.069833	0	0	1.360870e+01
418.161835	1.292938	mountain	1	0	0.000000	1.548766	1	0	0	0	CorrectOmission	1.405499	1.065948	0	0	1.376087e+01
419.447998	1.279407	city	5	1	1.531093	1.531093	0	1	0	0	CorrectCommission	1.313864	1.054892	0	0	1.391304e+01
420.740906	1.306385	city	2	1	1.485496	1.485496	0	1	0	0	CorrectCommission	1.077452	1.036172	0	0	1.406522e+01
422.040558	1.292910	city	10	1	1.302442	1.302442	0	1	0	0	CorrectCommission	0.128326	1.009751	0	0	1.421739e+01
423.346802	1.319581	city	5	1	1.098752	1.098752	0	1	0	0	CorrectCommission	0.927792	0.976214	0	0	1.436957e+01
424.646393	1.279591	city	8	1	0.832823	0.832823	0	1	0	0	CorrectCommission	2.306613	0.936745	0	0	1.452174e+01
425.945953	1.319566	city	1	1	1.033965	1.033965	0	1	0	0	CorrectCommission	1.263707	0.893097	0	0	1.467391e+01
427.252136	1.292805	city	7	1	1.384958	1.384958	0	1	0	0	CorrectCommission	0.556164	0.847603	0	0	1.482609e+01
428.551727	1.306333	city	3	1	1.545517	1.545517	0	1	0	0	CorrectCommission	1.388656	0.802870	0	0	1.497826e+01
429.858002	1.306210	city	6	1	1.264835	1.264835	0	1	0	0	CorrectCommission	0.066664	0.761547	0	0	1.513043e+01
431.164154	1.306106	city	7	1	1.245227	1.245227	0	1	0	0	CorrectCommission	0.168328	0.726133	1	0	1.528261e+01
432.457001	1.279584	city	10	1	1.321339	1.321339	0	1	0	0	CorrectCommission	0.226307	0.698644	1	0	1.543478e+01
433.756561	1.319553	city	5	1	1.355282	1.355282	0	1	0	0	CorrectCommission	0.402297	0.680464	1	0	1.558696e+01
435.062866	1.293046	city	7	1	1.307842	1.307842	0	1	0	0	CorrectCommission	0.156324	0.672276	1	0	1.573913e+01
436.355835	1.292895	city	8	1	1.191607	1.191607	0	1	0	0	CorrectCommission	0.446342	0.674160	1	0	1.589130e+01
437.648743	1.292927	city	7	1	1.105299	1.105299	0	1	0	0	CorrectCommission	0.893845	0.685621	1	0	1.604348e+01
438.941589	1.292753	city	3	1	1.056100	1.056100	0	1	0	0	CorrectCommission	1.148940	0.705765	1	0	1.619565e+01
440.247833	1.319746	city	1	1	1.054407	1.054407	0	1	0	0	CorrectCommission	1.157715	0.733415	1	0	1.634783e+01
441.547455	1.279491	city	7	1	1.480247	1.480247	0	1	0	0	CorrectCommission	1.050234	0.767154	0	0	1.650000e+01
442.840332	1.306299	city	3	1	1.332837	1.332837	0	1	0	0	CorrectCommission	0.285926	0.805352	0	0	1.665217e+01
444.139954	1.292931	city	1	1	1.351712	1.351712	0	1	0	0	CorrectCommission	0.383787	0.846094	0	0	1.680435e+01
445.446198	1.319538	city	4	1	1.261981	1.261981	0	1	0	0	CorrectCommission	0.081458	0.887198	0	0	1.695652e+01
446.745697	1.279482	city	7	1	1.300628	1.300628	0	1	0	0	CorrectCommission	0.118920	0.926303	0	0	1.710870e+01
448.031952	1.293029	city	8	1	0.980962	0.980962	0	1	0	0	CorrectCommission	1.538521	0.961055	0	0	1.726087e+01
449.338257	1.319550	city	3	1	0.836523	0.836523	0	1	0	0	CorrectCommission	2.287431	0.989396	0	0	1.741304e+01
450.651154	1.306257	city	10	1	1.107310	1.107310	0	1	0	0	CorrectCommission	0.883419	1.009998	0	0	1.756522e+01
451.950653	1.292743	city	7	1	1.750544	1.750544	0	1	0	0	CorrectCommission	2.451702	1.022573	0	0	1.771739e+01
453.243469	1.292919	city	10	1	1.422936	1.422936	0	1	0	0	CorrectCommission	0.753080	1.028024	0	0	1.786957e+01
454.529816	1.279724	mountain	2	0	0.000000	1.464705	1	0	0	0	CorrectOmission	0.969649	1.028621	0	0	1.802174e+01
455.809448	1.279595	city	9	1	1.587764	1.587764	0	1	0	0	CorrectCommission	1.607700	1.027730	0	0	1.817391e+01
457.102295	1.306066	city	4	1	1.504026	1.504026	0	1	0	0	CorrectCommission	1.173524	1.029354	0	0	1.832609e+01
458.428406	1.346150	city	8	1	1.305024	1.305024	0	1	0	0	CorrectCommission	0.141715	1.037633	0	0	1.847826e+01
459.741302	1.279656	city	4	1	1.321326	1.321326	0	1	0	0	CorrectCommission	0.226240	1.056163	0	0	1.863043e+01
461.027649	1.293053	city	1	1	1.488336	1.488336	0	1	0	0	CorrectCommission	1.092175	1.087291	0	0	1.878261e+01
462.327301	1.306231	city	9	1	1.353977	1.353977	0	1	0	0	CorrectCommission	0.395532	1.131649	0	0	1.893478e+01
463.640137	1.319423	city	4	1	1.271347	1.271347	0	1	0	0	CorrectCommission	0.032899	1.187926	0	0	1.908696e+01
464.939697	1.279744	city	8	1	1.088209	1.088209	0	1	0	0	CorrectCommission	0.982453	1.252837	0	0	1.923913e+01
466.226013	1.292886	city	1	1	1.500734	1.500734	0	1	0	0	CorrectCommission	1.156456	1.321404	0	0	1.939130e+01
467.532257	1.319588	city	8	1	1.789199	1.789199	0	1	0	0	CorrectCommission	2.652128	1.387555	0	0	1.954348e+01
468.831848	1.279560	city	5	1	1.516689	1.516689	0	1	0	0	CorrectCommission	1.239183	1.444792	0	0	1.969565e+01
470.124725	1.306241	city	4	1	1.684857	1.684857	0	1	0	0	CorrectCommission	2.111123	1.487038	0	0	1.984783e+01
470.777863	12.289133	break	0	0	0.000000	1.723508	0	0	0	0	ThoughtProbe	2.311525	1.509288	0	20	20
483.706848	1.279731	mountain	10	0	0.000000	1.709907	1	0	0	0	CorrectOmission	2.241002	1.508204	0	0	1.995652e+01
485.013184	1.332892	city	7	1	1.721317	1.721317	0	1	0	0	CorrectCommission	2.300166	1.482449	0	0	1.991304e+01
486.339386	1.319567	city	8	1	1.835005	1.835005	0	1	0	0	CorrectCommission	2.889630	1.432759	0	0	1.986957e+01
487.652313	1.306279	city	4	1	1.487022	1.487022	0	1	0	0	CorrectCommission	1.085364	1.361713	0	0	1.982609e+01
488.958557	1.306216	city	5	1	1.101294	1.101294	0	1	0	0	CorrectCommission	0.914612	1.273397	0	0	1.978261e+01
490.271423	1.319465	city	2	1	1.180281	1.180281	0	1	0	0	CorrectCommission	0.505067	1.172874	0	0	1.973913e+01
491.577606	1.292929	city	9	1	0.968142	0.968142	0	1	0	0	CorrectCommission	1.604994	1.065582	0	0	1.969565e+01
492.877136	1.306128	city	4	1	1.162046	1.162046	0	1	0	0	CorrectCommission	0.599617	0.956869	0	0	1.965217e+01
494.169983	1.279547	city	5	1	1.231603	1.231603	0	1	0	0	CorrectCommission	0.238965	0.851635	0	0	1.960870e+01
495.462952	1.306435	city	2	1	0.990293	0.990293	0	1	0	0	CorrectCommission	1.490144	0.754014	0	0	1.956522e+01
496.755890	1.279430	mountain	7	1	1.327367	1.327367	0	0	1	0	CommissionError	0.257564	0.667235	1	0	1.952174e+01
498.088806	1.386383	city	3	1	1.283305	1.283305	0	1	0	0	CorrectCommission	0.029104	0.593747	1	0	1.947826e+01
499.428375	1.292747	city	9	1	1.256456	1.256456	0	1	0	0	CorrectCommission	0.110104	0.535194	1	0	1.943478e+01
500.734528	1.319578	city	10	1	1.276004	1.276004	0	1	0	0	CorrectCommission	0.008750	0.492622	1	0	1.939130e+01
502.054108	1.319563	city	2	1	1.263244	1.263244	0	1	0	0	CorrectCommission	0.074911	0.466687	1	0	1.934783e+01
503.353760	1.279727	city	9	1	1.430440	1.430440	0	1	0	0	CorrectCommission	0.791987	0.457775	1	0	1.930435e+01
504.660065	1.332892	city	1	1	1.408453	1.408453	0	1	0	0	CorrectCommission	0.677988	0.466062	1	0	1.926087e+01
506.032867	1.412753	city	9	1	1.230251	1.230251	0	1	0	0	CorrectCommission	0.245975	0.491536	1	0	1.921739e+01
507.379120	1.279708	mountain	1	0	0.000000	1.208983	1	0	0	0	CorrectOmission	0.356248	0.533828	1	0	1.917391e+01
508.698639	1.359376	city	1	1	1.261082	1.261082	0	1	0	0	CorrectCommission	0.086122	0.592019	1	0	1.913043e+01
510.018219	1.279744	city	8	1	1.302979	1.302979	0	1	0	0	CorrectCommission	0.131111	0.664374	1	0	1.908696e+01
511.304535	1.292914	city	7	1	1.381970	1.381970	0	1	0	0	CorrectCommission	0.540673	0.748152	0	0	1.904348e+01
512.644104	1.386179	city	3	1	1.410363	1.410363	0	1	0	0	CorrectCommission	0.687892	0.839496	0	0	19
513.990234	1.306080	city	5	1	1.265516	1.265516	0	1	0	0	CorrectCommission	0.063131	0.933539	0	0	1.895652e+01
515.296448	1.306333	city	2	1	1.032099	1.032099	0	1	0	0	CorrectCommission	1.273381	1.024686	0	0	1.891304e+01
516.602722	1.306308	city	4	1	1.140846	1.140846	0	1	0	0	CorrectCommission	0.709534	1.107104	0	0	1.886957e+01
517.915649	1.319547	city	2	1	0.998949	0.998949	0	1	0	0	CorrectCommission	1.445259	1.175388	0	0	1.882609e+01
519.235229	1.319598	city	1	1	0.791500	0.791500	0	1	0	0	CorrectCommission	2.520868	1.225175	0	0	1.878261e+01
520.561462	1.332876	city	2	1	0.688763	0.688763	0	1	0	0	CorrectCommission	3.053554	1.253684	0	0	1.873913e+01
521.867737	1.279584	city	6	1	0.784219	0.784219	0	1	0	0	CorrectCommission	2.558618	1.260092	0	0	1.869565e+01
523.167175	1.319401	city	10	1	0.727566	0.727566	0	1	0	0	CorrectCommission	2.852361	1.245554	0	0	1.865217e+01
524.493408	1.333003	city	7	1	1.227587	1.227587	0	1	0	0	CorrectCommission	0.259788	1.212838	0	0	1.860870e+01
525.799683	1.279523	city	2	1	1.287417	1.287417	0	1	0	0	CorrectCommission	0.050426	1.165915	0	0	1.856522e+01
527.099304	1.319697	city	10	1	1.176473	1.176473	0	1	0	0	CorrectCommission	0.524813	1.109147	0	0	1.852174e+01
528.405457	1.292643	city	6	1	1.261624	1.261624	0	1	0	0	CorrectCommission	0.083311	1.046680	0	0	1.847826e+01
529.698364	1.293157	mountain	8	0	0.000000	1.409492	1	0	0	0	CorrectOmission	0.683375	0.981988	0	0	1.843478e+01
531.004700	1.319576	city	8	1	1.545207	1.545207	0	1	0	0	CorrectCommission	1.387044	0.917577	0	0	1.839130e+01
532.310974	1.292900	city	3	1	1.593896	1.593896	0	1	0	0	CorrectCommission	1.639495	0.854959	0	0	1.834783e+01
533.617188	1.319553	city	8	1	1.524870	1.524870	0	1	0	0	CorrectCommission	1.281599	0.794808	0	0	1.830435e+01
534.936707	1.319455	city	9	1	1.220934	1.220934	0	1	0	0	CorrectCommission	0.294285	0.737229	1	0	1.826087e+01
536.236267	1.279758	city	8	1	1.480970	1.480970	0	1	0	0	CorrectCommission	1.053983	0.682002	1	0	1.821739e+01
537.535950	1.319517	city	4	1	1.176441	1.176441	0	1	0	0	CorrectCommission	0.524980	0.628694	1	0	1.817391e+01
538.842102	1.292889	city	5	1	1.241301	1.241301	0	1	0	0	CorrectCommission	0.188683	0.576895	1	0	1.813043e+01
540.161682	1.346247	city	3	1	1.253056	1.253056	0	1	0	0	CorrectCommission	0.127737	0.526191	1	0	1.808696e+01
541.474548	1.279441	city	9	1	1.306509	1.306509	0	1	0	0	CorrectCommission	0.149414	0.476197	1	0	1.804348e+01
542.114258	11.156388	break	0	0	0.000000	1.359962	0	0	0	0	ThoughtProbe	0.426565	0.426565	1	18	18
