onset	duration	trial_type	image_type	Press	ReactionTime	ReactionTime_Interpolated	CorrectOmission	CorrectCommission	CommissionError	OmissionError	response_type	nonsmoothVarianceTimeCourse	VarianceTimeCourse	In_the_Zone	ThoughtProbe	ThoughtProbe_Interpolated
0.652906	1.279679	city	2	1	1.177569	1.177569	0	1	0	0	CorrectCommission	0.580618	0.580618	1	0	85
1.932458	1.279425	city	5	1	1.075732	1.075732	0	1	0	0	CorrectCommission	0.166774	0.564313	1	0	85
3.212037	1.279732	city	9	1	0.937462	0.937462	0	1	0	0	CorrectCommission	0.395125	0.549050	1	0	85
4.491703	1.279600	city	3	1	0.913442	0.913442	0	1	0	0	CorrectCommission	0.492738	0.535804	1	0	85
5.777879	1.292753	city	8	1	0.831719	0.831719	0	1	0	0	CorrectCommission	0.824844	0.525424	1	0	85
7.064113	1.279713	city	6	1	1.019508	1.019508	0	1	0	0	CorrectCommission	0.061708	0.518582	1	0	85
8.343763	1.279589	city	9	1	0.818259	0.818259	0	1	0	0	CorrectCommission	0.879543	0.515712	1	0	85
9.623354	1.279591	mountain	7	0	0.000000	0.980954	1	0	0	0	CorrectOmission	0.218382	0.516946	1	0	85
10.902845	1.279391	city	3	1	1.181168	1.181168	0	1	0	0	CorrectCommission	0.595244	0.522134	1	0	85
12.182415	1.279747	city	8	1	1.092473	1.092473	0	1	0	0	CorrectCommission	0.234806	0.530787	1	0	85
13.475368	1.306159	city	3	1	0.992184	0.992184	0	1	0	0	CorrectCommission	0.172745	0.542161	1	0	85
14.768285	1.279677	city	1	1	0.837254	0.837254	0	1	0	0	CorrectCommission	0.802349	0.555337	1	0	85
16.047834	1.279422	city	6	1	0.968544	0.968544	0	1	0	0	CorrectCommission	0.268815	0.569288	1	0	85
17.327330	1.279569	city	1	1	0.818695	0.818695	0	1	0	0	CorrectCommission	0.877768	0.583105	1	0	85
18.606976	1.279722	city	7	1	0.827233	0.827233	0	1	0	0	CorrectCommission	0.843071	0.596113	1	0	85
19.886639	1.279604	city	4	1	0.888081	0.888081	0	1	0	0	CorrectCommission	0.595797	0.607984	1	0	85
21.172886	1.292890	city	6	1	0.832640	0.832640	0	1	0	0	CorrectCommission	0.821102	0.618822	1	0	85
22.459051	1.279443	mountain	6	1	0.697601	0.697601	0	0	1	0	CommissionError	1.369869	0.629096	1	0	85
23.745308	1.293071	mountain	1	1	0.954712	0.954712	0	0	1	0	CommissionError	0.325023	0.639543	1	0	85
25.031612	1.279536	city	8	1	1.137737	1.137737	0	1	0	0	CorrectCommission	0.418751	0.651000	1	0	85
26.311190	1.279618	city	9	1	1.036260	1.036260	0	1	0	0	CorrectCommission	0.006368	0.664139	1	0	85
27.590775	1.279552	city	7	1	1.126801	1.126801	0	1	0	0	CorrectCommission	0.374308	0.679290	1	0	85
28.870342	1.279584	city	8	1	0.876278	0.876278	0	1	0	0	CorrectCommission	0.643766	0.696274	1	0	85
30.149923	1.279578	mountain	2	0	0.000000	0.781303	1	0	0	0	CorrectOmission	1.029724	0.714349	1	0	85
31.436182	1.292940	city	5	1	0.818463	0.818463	0	1	0	0	CorrectCommission	0.878712	0.732233	1	0	85
32.722343	1.279383	city	7	1	0.964346	0.964346	0	1	0	0	CorrectCommission	0.285876	0.748263	0	0	85
34.008461	1.292853	city	1	1	0.711676	0.711676	0	1	0	0	CorrectCommission	1.312670	0.760538	0	0	85
35.294781	1.279789	city	7	1	1.289999	1.289999	0	1	0	0	CorrectCommission	1.037514	0.767176	0	0	85
36.581135	1.292916	city	9	1	0.928326	0.928326	0	1	0	0	CorrectCommission	0.432251	0.766550	0	0	85
37.887314	1.319443	city	1	1	0.771765	0.771765	0	1	0	0	CorrectCommission	1.068482	0.757509	0	0	85
39.186886	1.279699	city	2	1	0.604984	0.604984	0	1	0	0	CorrectCommission	1.746246	0.739505	1	0	85
40.493195	1.332923	city	4	1	1.112179	1.112179	0	1	0	0	CorrectCommission	0.314888	0.712731	1	0	85
41.812679	1.306046	city	3	1	1.181385	1.181385	0	1	0	0	CorrectCommission	0.596127	0.678216	1	0	85
43.112221	1.293033	city	4	1	1.354399	1.354399	0	1	0	0	CorrectCommission	1.299221	0.637681	1	0	85
44.418499	1.319522	city	2	1	1.172697	1.172697	0	1	0	0	CorrectCommission	0.560821	0.593464	1	0	85
45.718090	1.279664	city	5	1	1.085971	1.085971	0	1	0	0	CorrectCommission	0.208385	0.548399	1	0	85
47.017689	1.319536	city	1	1	1.205709	1.205709	0	1	0	0	CorrectCommission	0.694977	0.505594	1	0	85
48.317184	1.279450	city	5	1	1.124581	1.124581	0	1	0	0	CorrectCommission	0.365288	0.468212	1	0	85
49.596786	1.279756	city	8	1	1.074302	1.074302	0	1	0	0	CorrectCommission	0.160966	0.439259	1	0	85
50.876446	1.279563	city	2	1	1.037028	1.037028	0	1	0	0	CorrectCommission	0.009491	0.421337	1	0	85
52.162693	1.292932	city	6	1	1.037195	1.037195	0	1	0	0	CorrectCommission	0.010168	0.416479	1	0	85
53.482265	1.346218	city	3	1	1.063892	1.063892	0	1	0	0	CorrectCommission	0.118661	0.425969	1	0	85
54.808460	1.306167	city	1	1	1.037971	1.037971	0	1	0	0	CorrectCommission	0.013321	0.450227	1	0	85
56.121349	1.319616	city	3	1	1.066572	1.066572	0	1	0	0	CorrectCommission	0.129552	0.488732	1	0	85
57.420959	1.279604	city	10	1	0.749141	0.749141	0	1	0	0	CorrectCommission	1.160424	0.539995	1	0	85
58.060760	11.982616	break	0	0	0.000000	1.024047	0	0	0	0	ThoughtProbe	0.043263	0.601586	1	85	85
70.709885	1.333018	city	5	1	1.275495	1.275495	0	1	0	0	CorrectCommission	0.978572	0.670284	1	0	8.485000e+01
72.029495	1.306199	city	10	1	0.887691	0.887691	0	1	0	0	CorrectCommission	0.597383	0.742184	0	0	8.470000e+01
73.322311	1.279434	city	2	1	1.040301	1.040301	0	1	0	0	CorrectCommission	0.022791	0.812982	0	0	8.455000e+01
74.608559	1.293053	city	8	1	1.011784	1.011784	0	1	0	0	CorrectCommission	0.093095	0.878329	0	0	8.440000e+01
75.908134	1.306104	city	5	1	0.796293	0.796293	0	1	0	0	CorrectCommission	0.968808	0.934259	0	0	8.425000e+01
77.207626	1.292874	city	1	1	1.741997	1.741997	0	1	0	0	CorrectCommission	2.874338	0.977603	0	0	8.410000e+01
78.493942	1.279770	city	10	0	0.000000	1.766104	0	0	0	1	OmissionError	2.972305	1.006368	0	0	8.395000e+01
79.806862	1.346065	mountain	10	0	0.000000	1.320195	1	0	0	0	CorrectOmission	1.160223	1.020047	0	0	8.380000e+01
81.133095	1.306395	city	8	1	0.855850	0.855850	0	1	0	0	CorrectCommission	0.726778	1.019619	0	0	8.365000e+01
82.432701	1.292818	city	4	1	0.824650	0.824650	0	1	0	0	CorrectCommission	0.853568	1.007315	0	0	8.350000e+01
83.725594	1.292970	city	7	1	0.718875	0.718875	0	1	0	0	CorrectCommission	1.283419	0.986259	0	0	8.335000e+01
85.031784	1.319405	city	9	1	0.821408	0.821408	0	1	0	0	CorrectCommission	0.866745	0.959943	0	0	8.320000e+01
86.331276	1.279579	mountain	5	0	0.000000	0.956360	1	0	0	0	CorrectOmission	0.318327	0.931699	0	0	8.305000e+01
87.624199	1.306266	city	6	1	0.991840	0.991840	0	1	0	0	CorrectCommission	0.174143	0.904232	0	0	8.290000e+01
88.937141	1.319624	city	8	1	0.795957	0.795957	0	1	0	0	CorrectCommission	0.970173	0.879271	0	0	8.275000e+01
90.250107	1.306312	city	3	1	0.813838	0.813838	0	1	0	0	CorrectCommission	0.897508	0.857447	0	0	8.260000e+01
91.542999	1.279478	city	8	1	0.916321	0.916321	0	1	0	0	CorrectCommission	0.481037	0.838423	0	0	8.245000e+01
92.829178	1.292876	city	5	1	0.934227	0.934227	0	1	0	0	CorrectCommission	0.408273	0.821107	0	0	8.230000e+01
94.115471	1.279712	city	6	1	1.339016	1.339016	0	1	0	0	CorrectCommission	1.236707	0.804020	0	0	8.215000e+01
95.395134	1.279604	city	2	1	1.363063	1.363063	0	1	0	0	CorrectCommission	1.334428	0.785693	0	0	82
96.674713	1.279555	city	3	1	1.497332	1.497332	0	1	0	0	CorrectCommission	1.880072	0.764987	0	0	8.185000e+01
97.967438	1.305896	city	6	1	1.264047	1.264047	0	1	0	0	CorrectCommission	0.932047	0.741386	0	0	8.170000e+01
99.300255	1.359744	city	8	1	0.990427	0.990427	0	1	0	0	CorrectCommission	0.179885	0.715023	1	0	8.155000e+01
100.619934	1.279619	city	2	1	1.043932	1.043932	0	1	0	0	CorrectCommission	0.037546	0.686671	1	0	8.140000e+01
101.899590	1.279688	city	8	1	1.097124	1.097124	0	1	0	0	CorrectCommission	0.253709	0.657568	1	0	8.125000e+01
103.179237	1.279599	city	4	1	1.316485	1.316485	0	1	0	0	CorrectCommission	1.145145	0.629195	1	0	8.110000e+01
104.485451	1.332840	city	3	1	1.300413	1.300413	0	1	0	0	CorrectCommission	1.079833	0.603087	1	0	8.095000e+01
105.791672	1.279598	city	1	1	1.039090	1.039090	0	1	0	0	CorrectCommission	0.017870	0.580593	1	0	8.080000e+01
107.071220	1.279501	mountain	9	0	0.000000	0.905290	1	0	0	0	CorrectOmission	0.525863	0.562796	1	0	8.065000e+01
108.350777	1.279604	city	9	1	0.916426	0.916426	0	1	0	0	CorrectCommission	0.480612	0.550369	1	0	8.050000e+01
109.643646	1.306146	city	7	1	1.089907	1.089907	0	1	0	0	CorrectCommission	0.224378	0.543579	1	0	8.035000e+01
110.969917	1.346399	city	10	1	0.996451	0.996451	0	1	0	0	CorrectCommission	0.155408	0.542258	1	0	8.020000e+01
112.282921	1.279608	city	4	1	1.241532	1.241532	0	1	0	0	CorrectCommission	0.840552	0.545848	1	0	8.005000e+01
113.575752	1.306043	city	3	1	1.124814	1.124814	0	1	0	0	CorrectCommission	0.366235	0.553464	1	0	7.990000e+01
114.868591	1.279639	city	9	1	1.132434	1.132434	0	1	0	0	CorrectCommission	0.397199	0.564007	1	0	7.975000e+01
116.148254	1.279688	city	8	1	1.353970	1.353970	0	1	0	0	CorrectCommission	1.297477	0.576252	1	0	7.960000e+01
117.461212	1.346233	city	9	1	1.145500	1.145500	0	1	0	0	CorrectCommission	0.450300	0.588867	1	0	7.945000e+01
118.787437	1.306212	city	6	1	1.024888	1.024888	0	1	0	0	CorrectCommission	0.039842	0.600593	1	0	7.930000e+01
120.086998	1.292906	city	8	1	0.781577	0.781577	0	1	0	0	CorrectCommission	1.028607	0.610288	1	0	7.915000e+01
120.733452	8.583702	break	0	1	1.059384	1.059384	0	0	0	0	ThoughtProbe	0.100341	0.616984	1	79	79
129.956940	1.279582	city	6	1	1.472752	1.472752	0	1	0	0	CorrectCommission	1.780182	0.620029	1	0	7.807500e+01
131.263245	1.333037	city	4	1	1.036357	1.036357	0	1	0	0	CorrectCommission	0.006764	0.619109	1	0	7.715000e+01
132.576218	1.292904	city	10	1	0.871612	0.871612	0	1	0	0	CorrectCommission	0.662724	0.614391	1	0	7.622500e+01
133.875809	1.306263	mountain	9	0	0.000000	0.806992	1	0	0	0	CorrectOmission	0.925329	0.606482	1	0	7.530000e+01
135.182053	1.306240	city	7	1	0.978388	0.978388	0	1	0	0	CorrectCommission	0.228810	0.596437	1	0	7.437500e+01
136.474884	1.279414	city	8	1	1.521695	1.521695	0	1	0	0	CorrectCommission	1.979076	0.585670	1	0	7.345000e+01
137.754364	1.279545	city	1	1	1.038514	1.038514	0	1	0	0	CorrectCommission	0.015529	0.575714	1	0	7.252500e+01
139.040680	1.293089	city	10	1	1.147910	1.147910	0	1	0	0	CorrectCommission	0.460091	0.568097	1	0	7.160000e+01
140.333679	1.292899	mountain	7	1	1.034178	1.034178	0	0	1	0	CommissionError	0.002091	0.563993	1	0	7.067500e+01
141.633240	1.306234	city	2	1	0.937720	0.937720	0	1	0	0	CorrectCommission	0.394074	0.564094	1	0	6.975000e+01
142.926163	1.279601	city	7	1	1.023030	1.023030	0	1	0	0	CorrectCommission	0.047395	0.568373	1	0	6.882500e+01
144.239059	1.346207	city	1	1	1.079110	1.079110	0	1	0	0	CorrectCommission	0.180503	0.576136	1	0	6.790000e+01
145.565216	1.306095	city	8	1	1.168696	1.168696	0	1	0	0	CorrectCommission	0.544561	0.586111	1	0	6.697500e+01
146.878036	1.319543	city	10	1	0.884965	0.884965	0	1	0	0	CorrectCommission	0.608461	0.596681	1	0	6.605000e+01
148.217575	1.359546	city	9	1	1.509707	1.509707	0	1	0	0	CorrectCommission	1.930358	0.606218	1	0	6.512500e+01
149.583893	1.373072	city	1	1	1.178657	1.178657	0	1	0	0	CorrectCommission	0.585042	0.613364	1	0	6.420000e+01
150.910217	1.279580	mountain	9	0	0.000000	1.202318	1	0	0	0	CorrectOmission	0.681196	0.617409	1	0	6.327500e+01
152.189789	1.279562	city	7	1	1.236164	1.236164	0	1	0	0	CorrectCommission	0.818738	0.618369	1	0	6.235000e+01
153.495941	1.332749	city	5	1	0.935668	0.935668	0	1	0	0	CorrectCommission	0.402417	0.617078	1	0	6.142500e+01
154.835526	1.346437	city	9	1	0.916066	0.916066	0	1	0	0	CorrectCommission	0.482073	0.615094	1	0	6.050000e+01
156.161835	1.306165	city	8	1	0.773803	0.773803	0	1	0	0	CorrectCommission	1.060199	0.614439	1	0	5.957500e+01
157.461365	1.292908	city	6	1	0.978516	0.978516	0	1	0	0	CorrectCommission	0.228291	0.617326	1	0	5.865000e+01
158.767563	1.319489	city	4	1	1.180558	1.180558	0	1	0	0	CorrectCommission	0.592766	0.625785	1	0	5.772500e+01
160.080475	1.306315	city	10	1	1.118326	1.118326	0	1	0	0	CorrectCommission	0.339867	0.641364	1	0	5.680000e+01
161.386734	1.306204	city	1	1	0.941616	0.941616	0	1	0	0	CorrectCommission	0.378244	0.664822	1	0	5.587500e+01
162.712875	1.346091	city	7	1	1.097712	1.097712	0	1	0	0	CorrectCommission	0.256099	0.695932	1	0	5.495000e+01
164.052460	1.333083	city	1	1	1.005248	1.005248	0	1	0	0	CorrectCommission	0.119658	0.733506	1	0	5.402500e+01
165.365448	1.292880	city	6	1	0.888777	0.888777	0	1	0	0	CorrectCommission	0.592970	0.775465	0	0	5.310000e+01
166.671677	1.319594	city	5	1	0.639497	0.639497	0	1	0	0	CorrectCommission	1.605991	0.819129	0	0	5.217500e+01
167.971268	1.279566	city	4	1	0.918344	0.918344	0	1	0	0	CorrectCommission	0.472818	0.861543	0	0	5.125000e+01
169.277496	1.332904	city	10	1	0.778094	0.778094	0	1	0	0	CorrectCommission	1.042762	0.899936	0	0	5.032500e+01
170.597031	1.306159	city	7	1	0.665532	0.665532	0	1	0	0	CorrectCommission	1.500192	0.931997	0	0	4.940000e+01
171.903259	1.306303	city	2	1	0.678036	0.678036	0	1	0	0	CorrectCommission	1.449379	0.956193	0	0	4.847500e+01
173.209534	1.306246	city	8	1	0.489736	0.489736	0	1	0	0	CorrectCommission	2.214591	0.971878	0	0	4.755000e+01
174.509109	1.292911	city	7	1	0.889429	0.889429	0	1	0	0	CorrectCommission	0.590320	0.979248	0	0	4.662500e+01
175.841919	1.372710	city	9	1	0.857845	0.857845	0	1	0	0	CorrectCommission	0.718672	0.979246	0	0	4.570000e+01
177.168137	1.279726	city	8	1	0.822351	0.822351	0	1	0	0	CorrectCommission	0.862911	0.973172	0	0	4.477500e+01
178.454376	1.292743	city	4	1	0.834816	0.834816	0	1	0	0	CorrectCommission	0.812256	0.962525	0	0	4.385000e+01
179.753860	1.306239	city	3	1	0.903362	0.903362	0	1	0	0	CorrectCommission	0.533701	0.948668	0	0	4.292500e+01
180.406982	9.410259	break	0	0	0.000000	0.863796	0	0	0	0	ThoughtProbe	0.694489	0.932702	0	42	42
190.463791	1.293077	city	1	1	0.822075	0.822075	0	1	0	0	CorrectCommission	0.864032	0.915430	0	0	4.210000e+01
191.776764	1.332873	city	4	1	0.884157	0.884157	0	1	0	0	CorrectCommission	0.611746	0.897427	0	0	4.220000e+01
193.096329	1.306256	city	2	1	0.484835	0.484835	0	1	0	0	CorrectCommission	2.234509	0.879202	0	0	4.230000e+01
194.395889	1.292889	mountain	7	1	0.568065	0.568065	0	0	1	0	CommissionError	1.896279	0.861283	0	0	4.240000e+01
195.708710	1.332750	city	10	1	0.962627	0.962627	0	1	0	0	CorrectCommission	0.292861	0.844332	0	0	4.250000e+01
197.014786	1.279381	city	9	1	1.027726	1.027726	0	1	0	0	CorrectCommission	0.028312	0.829198	0	0	4.260000e+01
198.294357	1.279763	city	10	1	0.891005	0.891005	0	1	0	0	CorrectCommission	0.583916	0.816796	0	0	4.270000e+01
199.587433	1.306410	city	7	1	0.985530	0.985530	0	1	0	0	CorrectCommission	0.199788	0.807988	0	0	4.280000e+01
200.893692	1.306089	city	3	1	0.883990	0.883990	0	1	0	0	CorrectCommission	0.612424	0.803538	0	0	4.290000e+01
202.186584	1.279708	city	6	1	0.786481	0.786481	0	1	0	0	CorrectCommission	1.008680	0.803979	0	0	43
203.472900	1.292930	city	3	1	0.672636	0.672636	0	1	0	0	CorrectCommission	1.471321	0.809539	0	0	4.310000e+01
204.759079	1.279423	city	2	1	0.727454	0.727454	0	1	0	0	CorrectCommission	1.248552	0.820138	0	0	4.320000e+01
206.065308	1.333028	city	6	1	0.930153	0.930153	0	1	0	0	CorrectCommission	0.424825	0.835358	0	0	4.330000e+01
207.384949	1.306264	city	5	1	1.061863	1.061863	0	1	0	0	CorrectCommission	0.110415	0.854444	0	0	4.340000e+01
208.691116	1.306075	mountain	3	0	0.000000	0.939729	1	0	0	0	CorrectOmission	0.385913	0.876301	0	0	4.350000e+01
210.003937	1.319555	city	5	1	1.005458	1.005458	0	1	0	0	CorrectCommission	0.118804	0.899505	0	0	4.360000e+01
211.303589	1.279749	city	3	1	1.700757	1.700757	0	1	0	0	CorrectCommission	2.706748	0.922409	0	0	4.370000e+01
212.589874	1.292828	city	6	0	0.000000	1.342736	0	0	0	1	OmissionError	1.251826	0.943131	0	0	4.380000e+01
213.889435	1.306296	city	8	1	0.850732	0.850732	0	1	0	0	CorrectCommission	0.747576	0.959797	0	0	4.390000e+01
215.202377	1.319562	city	6	1	1.144082	1.144082	0	1	0	0	CorrectCommission	0.444535	0.970587	0	0	44
216.528549	1.332794	city	4	1	1.150698	1.150698	0	1	0	0	CorrectCommission	0.471421	0.973854	0	0	4.410000e+01
217.848038	1.306187	city	1	1	1.524443	1.524443	0	1	0	0	CorrectCommission	1.990245	0.968281	0	0	4.420000e+01
219.147675	1.293089	city	7	1	1.540659	1.540659	0	1	0	0	CorrectCommission	2.056143	0.952964	0	0	4.430000e+01
220.460663	1.332876	city	10	1	1.018036	1.018036	0	1	0	0	CorrectCommission	0.067689	0.927572	0	0	4.440000e+01
221.780136	1.306090	city	3	1	0.773518	0.773518	0	1	0	0	CorrectCommission	1.061360	0.892413	0	0	4.450000e+01
223.099701	1.333030	city	10	1	1.449737	1.449737	0	1	0	0	CorrectCommission	1.686653	0.848408	0	0	4.460000e+01
224.439331	1.346225	city	3	1	1.151350	1.151350	0	1	0	0	CorrectCommission	0.474072	0.797136	0	0	4.470000e+01
225.758911	1.292925	city	2	1	0.862605	0.862605	0	1	0	0	CorrectCommission	0.699327	0.740769	0	0	4.480000e+01
227.051743	1.292756	city	8	1	0.756090	0.756090	0	1	0	0	CorrectCommission	1.132182	0.681869	1	0	4.490000e+01
228.351288	1.306333	mountain	2	0	0.000000	0.844401	1	0	0	0	CorrectOmission	0.773305	0.623225	1	0	45
229.677597	1.346287	city	9	1	0.983219	0.983219	0	1	0	0	CorrectCommission	0.209178	0.567600	1	0	4.510000e+01
231.003845	1.306210	city	7	1	1.028225	1.028225	0	1	0	0	CorrectCommission	0.026282	0.517554	1	0	4.520000e+01
232.303360	1.292797	city	2	1	1.072038	1.072038	0	1	0	0	CorrectCommission	0.151763	0.475196	1	0	4.530000e+01
233.609589	1.319680	city	1	1	1.006048	1.006048	0	1	0	0	CorrectCommission	0.116405	0.442085	1	0	4.540000e+01
234.962540	1.386207	city	6	1	1.169635	1.169635	0	1	0	0	CorrectCommission	0.548377	0.419201	1	0	4.550000e+01
236.315414	1.319568	city	10	1	1.059358	1.059358	0	1	0	0	CorrectCommission	0.100236	0.406967	1	0	4.560000e+01
237.634995	1.319567	city	1	1	1.039855	1.039855	0	1	0	0	CorrectCommission	0.020978	0.405386	1	0	4.570000e+01
238.961182	1.332822	city	4	1	1.076347	1.076347	0	1	0	0	CorrectCommission	0.169276	0.414223	1	0	4.580000e+01
240.287445	1.319702	city	1	1	1.260676	1.260676	0	1	0	0	CorrectCommission	0.918351	0.433179	1	0	4.590000e+01
244.912552	7.930518	break	0	0	0.000000	1.025215	0	0	0	0	ThoughtProbe	0.038515	0.462092	1	46	46
249.524261	1.292892	city	8	1	0.871930	0.871930	0	1	0	0	CorrectCommission	0.661435	0.501016	1	0	4.514706e+01
250.817230	1.293063	city	6	1	1.302786	1.302786	0	1	0	0	CorrectCommission	1.089475	0.550123	1	0	4.429412e+01
252.116821	1.306115	city	9	1	1.122376	1.122376	0	1	0	0	CorrectCommission	0.356327	0.609563	1	0	4.344118e+01
253.436401	1.333046	city	4	1	1.059561	1.059561	0	1	0	0	CorrectCommission	0.101059	0.679194	1	0	4.258824e+01
254.749298	1.292735	city	9	1	1.171159	1.171159	0	1	0	0	CorrectCommission	0.554572	0.758248	0	0	4.173529e+01
256.035461	1.279568	city	5	1	1.019996	1.019996	0	1	0	0	CorrectCommission	0.059724	0.845058	0	0	4.088235e+01
257.335083	1.319721	city	6	1	0.974114	0.974114	0	1	0	0	CorrectCommission	0.246181	0.936875	0	0	4.002941e+01
258.648102	1.306267	city	9	1	0.718043	0.718043	0	1	0	0	CorrectCommission	1.286799	1.029826	0	0	3.917647e+01
259.954315	1.306213	mountain	3	1	0.563310	0.563310	0	0	1	0	CommissionError	1.915599	1.119193	0	0	3.832353e+01
261.253906	1.292932	city	5	1	1.124920	1.124920	0	1	0	0	CorrectCommission	0.366664	1.199795	0	0	3.747059e+01
262.540100	1.279477	city	2	1	1.459150	1.459150	0	1	0	0	CorrectCommission	1.724905	1.266634	0	0	3.661765e+01
263.846283	1.332856	city	6	1	1.435384	1.435384	0	1	0	0	CorrectCommission	1.628325	1.315444	0	0	3.576471e+01
265.172455	1.319528	city	9	1	1.602546	1.602546	0	1	0	0	CorrectCommission	2.307638	1.343399	0	0	3.491176e+01
266.492096	1.319740	city	3	1	1.752978	1.752978	0	1	0	0	CorrectCommission	2.918962	1.349477	0	0	3.405882e+01
267.811737	1.319541	city	10	1	1.747879	1.747879	0	1	0	0	CorrectCommission	2.898240	1.334654	0	0	3.320588e+01
269.144623	1.346226	city	1	0	0.000000	1.464546	0	0	0	1	OmissionError	1.746835	1.301804	0	0	3.235294e+01
270.497528	1.359571	city	4	1	1.090589	1.090589	0	1	0	0	CorrectCommission	0.227150	1.255221	0	0	3.150000e+01
271.823761	1.292891	city	2	1	0.813616	0.813616	0	1	0	0	CorrectCommission	0.898411	1.199995	0	0	3.064706e+01
273.163300	1.386211	city	8	1	0.768403	0.768403	0	1	0	0	CorrectCommission	1.082146	1.141210	0	0	2.979412e+01
274.529510	1.346222	city	7	1	1.057976	1.057976	0	1	0	0	CorrectCommission	0.094621	1.083326	0	0	2.894118e+01
275.842346	1.279443	city	5	1	1.017885	1.017885	0	1	0	0	CorrectCommission	0.068303	1.029673	0	0	2.808824e+01
277.148590	1.333051	city	2	1	1.044803	1.044803	0	1	0	0	CorrectCommission	0.041087	0.982240	0	0	2.723529e+01
278.461578	1.292923	mountain	1	0	0.000000	1.294429	1	0	0	0	CorrectOmission	1.055514	0.941741	0	0	2.638235e+01
279.761108	1.306116	city	1	1	1.525946	1.525946	0	1	0	0	CorrectCommission	1.996354	0.907861	0	0	2.552941e+01
281.080566	1.332817	city	5	1	1.498541	1.498541	0	1	0	0	CorrectCommission	1.884982	0.879786	0	0	2.467647e+01
282.466736	1.439525	city	4	1	1.364010	1.364010	0	1	0	0	CorrectCommission	1.338279	0.856564	0	0	2.382353e+01
283.826324	1.279620	city	8	1	0.968688	0.968688	0	1	0	0	CorrectCommission	0.268231	0.837384	0	0	2.297059e+01
285.105927	1.279587	city	5	1	0.751586	0.751586	0	1	0	0	CorrectCommission	1.150487	0.821801	0	0	2.211765e+01
286.392212	1.293029	city	4	1	1.032958	1.032958	0	1	0	0	CorrectCommission	0.007051	0.809665	0	0	2.126471e+01
287.725159	1.372854	city	2	1	1.008428	1.008428	0	1	0	0	CorrectCommission	0.106733	0.801125	0	0	2.041176e+01
289.091339	1.359499	city	4	1	1.064170	1.064170	0	1	0	0	CorrectCommission	0.119789	0.796419	0	0	1.955882e+01
290.417511	1.292824	city	7	1	0.804822	0.804822	0	1	0	0	CorrectCommission	0.934148	0.795864	0	0	1.870588e+01
291.710449	1.293075	city	9	1	0.856342	0.856342	0	1	0	0	CorrectCommission	0.724779	0.799736	0	0	1.785294e+01
292.356995	9.543365	break	0	1	0.804866	0.804866	0	0	0	0	ThoughtProbe	0.933968	0.808307	0	17	17
302.553558	1.306418	city	4	1	1.669912	1.669912	0	1	0	0	CorrectCommission	2.581398	0.821798	0	0	1.771739e+01
303.886536	1.359529	city	7	1	1.298249	1.298249	0	1	0	0	CorrectCommission	1.071039	0.840284	0	0	1.843478e+01
305.239380	1.346150	city	9	1	1.134808	1.134808	0	1	0	0	CorrectCommission	0.406847	0.863632	0	0	1.915217e+01
306.578949	1.332965	city	1	1	1.008116	1.008116	0	1	0	0	CorrectCommission	0.108001	0.891217	0	0	1.986957e+01
307.885223	1.279590	city	2	1	0.999283	0.999283	0	1	0	0	CorrectCommission	0.143898	0.921765	0	0	2.058696e+01
309.184814	1.319584	city	5	1	1.021837	1.021837	0	1	0	0	CorrectCommission	0.052243	0.953239	0	0	2.130435e+01
310.504364	1.319538	city	3	1	0.900327	0.900327	0	1	0	0	CorrectCommission	0.546034	0.982934	0	0	2.202174e+01
311.810608	1.292934	city	6	1	0.703459	0.703459	0	1	0	0	CorrectCommission	1.346063	1.007753	0	0	2.273913e+01
313.096832	1.279560	city	10	1	0.969755	0.969755	0	1	0	0	CorrectCommission	0.263893	1.024677	0	0	2.345652e+01
314.376373	1.279493	mountain	2	1	1.987244	1.987244	0	0	1	0	CommissionError	3.870973	1.031377	0	0	2.417391e+01
315.662628	1.293016	mountain	5	0	0.000000	1.803640	1	0	0	0	CorrectOmission	3.124842	1.026525	0	0	2.489130e+01
316.982178	1.346075	city	10	1	1.269220	1.269220	0	1	0	0	CorrectCommission	0.953072	1.010280	0	0	2.560870e+01
318.314972	1.319531	city	8	1	1.234265	1.234265	0	1	0	0	CorrectCommission	0.811020	0.984263	0	0	2.632609e+01
319.634613	1.319722	city	6	1	1.003608	1.003608	0	1	0	0	CorrectCommission	0.126322	0.951239	0	0	2.704348e+01
320.954163	1.319403	city	8	1	0.893036	0.893036	0	1	0	0	CorrectCommission	0.575661	0.914691	0	0	2.776087e+01
322.273651	1.319591	city	2	1	0.992325	0.992325	0	1	0	0	CorrectCommission	0.172173	0.878156	0	0	2.847826e+01
323.586578	1.306236	mountain	4	1	0.911136	0.911136	0	0	1	0	CommissionError	0.502107	0.844708	0	0	2.919565e+01
324.892853	1.306317	city	6	1	1.271216	1.271216	0	1	0	0	CorrectCommission	0.961181	0.816475	0	0	2.991304e+01
326.199158	1.306316	city	5	1	1.135946	1.135946	0	1	0	0	CorrectCommission	0.411472	0.794408	0	0	3.063043e+01
327.525421	1.346206	city	2	1	0.915301	0.915301	0	1	0	0	CorrectCommission	0.485181	0.778253	0	0	3.134783e+01
328.844910	1.292743	city	8	1	0.793660	0.793660	0	1	0	0	CorrectCommission	0.979506	0.766756	0	0	3.206522e+01
330.151154	1.319751	city	4	1	0.714841	0.714841	0	1	0	0	CorrectCommission	1.299810	0.757994	0	0	3.278261e+01
331.470703	1.319381	city	5	1	1.151822	1.151822	0	1	0	0	CorrectCommission	0.475988	0.749782	0	0	3.350000e+01
332.770264	1.279741	city	3	1	0.884934	0.884934	0	1	0	0	CorrectCommission	0.608588	0.740163	0	0	3.421739e+01
334.069885	1.319477	city	6	1	0.741637	0.741637	0	1	0	0	CorrectCommission	1.190915	0.727708	1	0	3.493478e+01
335.389374	1.319497	mountain	7	1	1.410846	1.410846	0	0	1	0	CommissionError	1.528611	0.711743	1	0	3.565217e+01
336.722351	1.346444	city	9	1	0.964718	0.964718	0	1	0	0	CorrectCommission	0.284361	0.692465	1	0	3.636957e+01
338.048584	1.306026	city	1	1	1.087101	1.087101	0	1	0	0	CorrectCommission	0.212978	0.670913	1	0	3.708696e+01
339.368042	1.332886	city	6	1	1.374869	1.374869	0	1	0	0	CorrectCommission	1.382408	0.648714	1	0	3.780435e+01
340.714355	1.359746	city	10	1	0.832131	0.832131	0	1	0	0	CorrectCommission	0.823170	0.627769	1	0	3.852174e+01
342.060669	1.332886	city	6	1	1.100400	1.100400	0	1	0	0	CorrectCommission	0.267023	0.610020	1	0	3.923913e+01
343.393555	1.332868	city	4	1	0.956614	0.956614	0	1	0	0	CorrectCommission	0.317297	0.596953	1	0	3.995652e+01
344.719727	1.319493	city	8	1	1.054559	1.054559	0	1	0	0	CorrectCommission	0.080734	0.589377	1	0	4.067391e+01
346.039215	1.319479	city	7	1	1.014256	1.014256	0	1	0	0	CorrectCommission	0.083051	0.587296	1	0	4.139130e+01
347.358826	1.319753	city	2	1	1.015748	1.015748	0	1	0	0	CorrectCommission	0.076986	0.589842	1	0	4.210870e+01
348.698486	1.359550	city	1	1	1.047635	1.047635	0	1	0	0	CorrectCommission	0.052596	0.595437	1	0	4.282609e+01
350.024689	1.292888	city	5	1	1.338090	1.338090	0	1	0	0	CorrectCommission	1.232942	0.602072	1	0	4.354348e+01
351.337585	1.332914	city	6	1	1.524228	1.524228	0	1	0	0	CorrectCommission	1.989371	0.607634	1	0	4.426087e+01
352.697083	1.386031	city	4	1	1.214929	1.214929	0	1	0	0	CorrectCommission	0.732442	0.610311	1	0	4.497826e+01
354.043243	1.306325	city	6	1	1.250947	1.250947	0	1	0	0	CorrectCommission	0.878812	0.608892	1	0	4.569565e+01
355.356262	1.319706	city	5	1	0.963627	0.963627	0	1	0	0	CorrectCommission	0.288797	0.602915	1	0	4.641304e+01
356.675812	1.319387	city	9	1	0.987629	0.987629	0	1	0	0	CorrectCommission	0.191257	0.592732	1	0	4.713043e+01
358.015320	1.359644	city	1	1	1.202534	1.202534	0	1	0	0	CorrectCommission	0.682071	0.579413	1	0	4.784783e+01
359.348206	1.306140	city	2	1	1.348423	1.348423	0	1	0	0	CorrectCommission	1.274937	0.564562	1	0	4.856522e+01
360.681030	1.359515	city	6	1	1.109356	1.109356	0	1	0	0	CorrectCommission	0.303417	0.550114	1	0	4.928261e+01
361.360809	14.062195	break	0	1	0.985837	0.985837	0	0	0	0	ThoughtProbe	0.198537	0.538123	1	50	50
376.062714	1.279423	mountain	3	0	0.000000	0.956829	1	0	0	0	CorrectOmission	0.316420	0.530446	1	0	4.997059e+01
377.342285	1.279754	city	3	1	0.969539	0.969539	0	1	0	0	CorrectCommission	0.264771	0.528597	1	0	4.994118e+01
378.621948	1.279574	city	6	1	0.971172	0.971172	0	1	0	0	CorrectCommission	0.258133	0.533644	1	0	4.991176e+01
379.901520	1.279562	city	9	1	0.806571	0.806571	0	1	0	0	CorrectCommission	0.927037	0.546110	1	0	4.988235e+01
381.181122	1.279595	city	10	1	0.977557	0.977557	0	1	0	0	CorrectCommission	0.232185	0.565939	1	0	4.985294e+01
382.460693	1.279563	city	5	1	1.076337	1.076337	0	1	0	0	CorrectCommission	0.169233	0.592594	1	0	4.982353e+01
383.740204	1.279467	city	6	1	1.181051	1.181051	0	1	0	0	CorrectCommission	0.594771	0.625111	1	0	4.979412e+01
385.019775	1.279704	city	4	1	1.284090	1.284090	0	1	0	0	CorrectCommission	1.013501	0.662158	1	0	4.976471e+01
386.299347	1.279429	city	10	1	0.910893	0.910893	0	1	0	0	CorrectCommission	0.503098	0.702155	1	0	4.973529e+01
387.578918	1.279686	city	9	1	1.230884	1.230884	0	1	0	0	CorrectCommission	0.797282	0.743403	0	0	4.970588e+01
388.858490	1.279477	city	3	1	0.936265	0.936265	0	1	0	0	CorrectCommission	0.399990	0.784116	0	0	4.967647e+01
390.138000	1.279554	city	1	1	0.750996	0.750996	0	1	0	0	CorrectCommission	1.152886	0.822576	0	0	4.964706e+01
391.417664	1.279779	city	3	1	0.804125	0.804125	0	1	0	0	CorrectCommission	0.936978	0.857165	0	0	4.961765e+01
392.697327	1.279539	city	7	1	0.641798	0.641798	0	1	0	0	CorrectCommission	1.596642	0.886472	0	0	4.958824e+01
393.983551	1.292920	city	4	1	0.832844	0.832844	0	1	0	0	CorrectCommission	0.820270	0.909368	0	0	4.955882e+01
395.269806	1.279587	city	7	1	0.867404	0.867404	0	1	0	0	CorrectCommission	0.679827	0.925093	0	0	4.952941e+01
396.549377	1.279560	city	9	1	0.857733	0.857733	0	1	0	0	CorrectCommission	0.719126	0.933291	0	0	4.950000e+01
397.835480	1.292616	city	3	1	0.794783	0.794783	0	1	0	0	CorrectCommission	0.974943	0.934065	0	0	4.947059e+01
399.121735	1.279872	mountain	1	1	0.515947	0.515947	0	0	1	0	CommissionError	2.108075	0.927990	0	0	4.944118e+01
400.401459	1.279596	city	7	1	0.823608	0.823608	0	1	0	0	CorrectCommission	0.857805	0.916056	0	0	4.941176e+01
401.681000	1.279474	city	10	1	0.804003	0.804003	0	1	0	0	CorrectCommission	0.937476	0.899670	0	0	4.938235e+01
402.960571	1.279668	city	7	1	0.761439	0.761439	0	1	0	0	CorrectCommission	1.110448	0.880416	0	0	4.935294e+01
404.240173	1.279578	city	5	1	0.912648	0.912648	0	1	0	0	CorrectCommission	0.495964	0.859891	0	0	4.932353e+01
405.519684	1.279442	city	2	1	0.920263	0.920263	0	1	0	0	CorrectCommission	0.465018	0.839507	0	0	4.929412e+01
406.805939	1.293043	city	10	1	0.938198	0.938198	0	1	0	0	CorrectCommission	0.392134	0.820274	0	0	4.926471e+01
408.092194	1.279466	city	6	1	1.349544	1.349544	0	1	0	0	CorrectCommission	1.279491	0.802659	0	0	4.923529e+01
409.371704	1.279539	city	2	1	1.230903	1.230903	0	1	0	0	CorrectCommission	0.797357	0.786534	0	0	4.920588e+01
410.651337	1.279733	city	3	1	0.981335	0.981335	0	1	0	0	CorrectCommission	0.216834	0.771257	0	0	4.917647e+01
411.931000	1.279595	city	10	1	0.805000	0.805000	0	1	0	0	CorrectCommission	0.933425	0.755780	0	0	4.914706e+01
413.210571	1.279582	city	6	1	1.070526	1.070526	0	1	0	0	CorrectCommission	0.145620	0.738853	1	0	4.911765e+01
414.490082	1.279442	city	8	1	0.804272	0.804272	0	1	0	0	CorrectCommission	0.936382	0.719346	1	0	4.908824e+01
415.769653	1.279687	city	5	1	0.622474	0.622474	0	1	0	0	CorrectCommission	1.675169	0.696418	1	0	4.905882e+01
417.049286	1.279584	city	4	1	0.697616	0.697616	0	1	0	0	CorrectCommission	1.369809	0.669733	1	0	4.902941e+01
417.689087	11.609514	break	0	0	0.000000	0.809951	0	0	0	0	ThoughtProbe	0.913303	0.639539	1	49	49
429.938324	1.279441	city	5	0	0.000000	0.927229	0	0	0	1	OmissionError	0.436711	0.606637	1	0	4.882609e+01
431.217896	1.279717	city	1	1	1.017198	1.017198	0	1	0	0	CorrectCommission	0.071094	0.572195	1	0	4.865217e+01
432.497559	1.279581	mountain	1	0	0.000000	1.047609	1	0	0	0	CorrectOmission	0.052490	0.537589	1	0	4.847826e+01
433.777130	1.279578	city	5	1	1.071498	1.071498	0	1	0	0	CorrectCommission	0.149570	0.504179	1	0	4.830435e+01
435.056702	1.279579	city	6	1	1.141901	1.141901	0	1	0	0	CorrectCommission	0.435674	0.473153	1	0	4.813043e+01
436.336212	1.279431	city	4	1	1.159736	1.159736	0	1	0	0	CorrectCommission	0.508150	0.445473	1	0	4.795652e+01
437.615784	1.279724	city	9	1	0.880603	0.880603	0	1	0	0	CorrectCommission	0.626187	0.421870	1	0	4.778261e+01
438.902039	1.292769	city	7	1	0.880982	0.880982	0	1	0	0	CorrectCommission	0.624646	0.402943	1	0	4.760870e+01
440.188293	1.279722	city	2	1	0.911369	0.911369	0	1	0	0	CorrectCommission	0.501160	0.389258	1	0	4.743478e+01
441.467957	1.279606	city	3	1	1.085020	1.085020	0	1	0	0	CorrectCommission	0.204520	0.381408	1	0	4.726087e+01
442.754211	1.292907	city	6	1	1.037006	1.037006	0	1	0	0	CorrectCommission	0.009399	0.380076	1	0	4.708696e+01
444.040436	1.279557	city	7	1	0.968814	0.968814	0	1	0	0	CorrectCommission	0.267718	0.385999	1	0	4.691304e+01
445.319946	1.279497	city	8	1	0.921222	0.921222	0	1	0	0	CorrectCommission	0.461121	0.399916	1	0	4.673913e+01
446.599548	1.279679	mountain	5	0	0.000000	1.039740	1	0	0	0	CorrectOmission	0.020510	0.422382	1	0	4.656522e+01
447.879089	1.279390	city	4	1	1.121638	1.121638	0	1	0	0	CorrectCommission	0.353329	0.453726	1	0	4.639130e+01
449.158661	1.279750	city	1	1	0.964190	0.964190	0	1	0	0	CorrectCommission	0.286509	0.493886	1	0	4.621739e+01
450.438324	1.279598	city	8	1	0.910851	0.910851	0	1	0	0	CorrectCommission	0.503266	0.542287	1	0	4.604348e+01
451.717896	1.279560	city	4	1	0.971524	0.971524	0	1	0	0	CorrectCommission	0.256704	0.597819	1	0	4.586957e+01
452.997467	1.279577	city	2	1	0.916046	0.916046	0	1	0	0	CorrectCommission	0.482157	0.658848	1	0	4.569565e+01
454.277039	1.279578	mountain	4	1	0.748853	0.748853	0	0	1	0	CommissionError	1.161594	0.723255	1	0	4.552174e+01
455.556641	1.279582	city	9	1	1.121698	1.121698	0	1	0	0	CorrectCommission	0.353572	0.788584	0	0	4.534783e+01
456.836243	1.279628	city	5	1	0.805114	0.805114	0	1	0	0	CorrectCommission	0.932960	0.852220	0	0	4.517391e+01
458.115814	1.279528	city	8	1	0.805285	0.805285	0	1	0	0	CorrectCommission	0.932264	0.911564	0	0	45
459.395355	1.279570	city	7	1	0.804246	0.804246	0	1	0	0	CorrectCommission	0.936488	0.964262	0	0	4.482609e+01
460.674866	1.279455	city	5	1	0.671644	0.671644	0	1	0	0	CorrectCommission	1.475355	1.008378	0	0	4.465217e+01
461.954376	1.279549	mountain	7	1	0.535446	0.535446	0	0	1	0	CommissionError	2.028833	1.042491	0	0	4.447826e+01
463.234497	1.280699	city	10	1	0.710130	0.710130	0	1	0	0	CorrectCommission	1.318954	1.065806	0	0	4.430435e+01
464.520813	1.291947	city	2	1	1.403211	1.403211	0	1	0	0	CorrectCommission	1.497583	1.078220	0	0	4.413043e+01
465.806580	1.279580	city	10	1	1.228962	1.228962	0	1	0	0	CorrectCommission	0.789470	1.080159	0	0	4.395652e+01
467.086212	1.279637	city	8	1	1.124063	1.124063	0	1	0	0	CorrectCommission	0.363182	1.072552	0	0	4.378261e+01
468.365784	1.279520	city	2	1	1.206825	1.206825	0	1	0	0	CorrectCommission	0.699509	1.056772	0	0	4.360870e+01
469.645264	1.279448	city	7	1	1.577100	1.577100	0	1	0	0	CorrectCommission	2.204233	1.034593	0	0	4.343478e+01
470.924866	1.279733	city	10	1	0.963971	0.963971	0	1	0	0	CorrectCommission	0.287398	1.008115	0	0	4.326087e+01
472.204498	1.279554	city	4	1	1.391413	1.391413	0	1	0	0	CorrectCommission	1.449639	0.979850	0	0	4.308696e+01
473.484070	1.279589	city	7	1	1.564990	1.564990	0	1	0	0	CorrectCommission	2.155017	0.952530	0	0	4.291304e+01
474.763672	1.279644	city	9	1	0.813949	0.813949	0	1	0	0	CorrectCommission	0.897055	0.929049	0	0	4.273913e+01
476.043182	1.279365	city	7	1	1.046003	1.046003	0	1	0	0	CorrectCommission	0.045961	0.912224	0	0	4.256522e+01
477.322723	1.279721	city	4	1	0.964356	0.964356	0	1	0	0	CorrectCommission	0.285834	0.904456	0	0	4.239130e+01
478.608948	1.292741	city	6	1	0.924450	0.924450	0	1	0	0	CorrectCommission	0.448002	0.907413	0	0	4.221739e+01
479.895111	1.279586	city	8	1	0.826315	0.826315	0	1	0	0	CorrectCommission	0.846803	0.921704	0	0	4.204348e+01
481.174713	1.279573	city	4	1	1.017394	1.017394	0	1	0	0	CorrectCommission	0.070297	0.946719	0	0	4.186957e+01
482.454376	1.279739	city	6	1	0.820653	0.820653	0	1	0	0	CorrectCommission	0.869812	0.980600	0	0	4.169565e+01
483.734039	1.279615	city	5	1	0.748360	0.748360	0	1	0	0	CorrectCommission	1.163597	1.020372	0	0	4.152174e+01
485.013550	1.279412	city	1	1	1.390564	1.390564	0	1	0	0	CorrectCommission	1.446188	1.062280	0	0	4.134783e+01
486.293121	1.279734	city	9	1	1.027763	1.027763	0	1	0	0	CorrectCommission	0.028160	1.102245	0	0	4.117391e+01
486.932983	9.903384	break	0	1	0.861352	0.861352	0	0	0	0	ThoughtProbe	0.704420	1.136403	0	41	41
497.476166	1.279596	city	4	1	2.030693	2.030693	0	1	0	0	CorrectCommission	4.047541	1.161504	0	0	4.170588e+01
498.755768	1.279588	city	7	1	1.612156	1.612156	0	1	0	0	CorrectCommission	2.346692	1.175251	0	0	4.241176e+01
500.035339	1.279561	city	4	1	0.964190	0.964190	0	1	0	0	CorrectCommission	0.286506	1.176638	0	0	4.311765e+01
501.314911	1.279598	city	3	1	0.822288	0.822288	0	1	0	0	CorrectCommission	0.863170	1.165822	0	0	4.382353e+01
502.594482	1.279557	city	1	1	1.550653	1.550653	0	1	0	0	CorrectCommission	2.096755	1.143874	0	0	4.452941e+01
503.874084	1.279628	city	8	1	1.228290	1.228290	0	1	0	0	CorrectCommission	0.786738	1.112460	0	0	4.523529e+01
505.153595	1.279394	city	3	1	0.911989	0.911989	0	1	0	0	CorrectCommission	0.498640	1.073526	0	0	4.594118e+01
506.439758	1.292943	city	2	1	0.844790	0.844790	0	1	0	0	CorrectCommission	0.771726	1.028849	0	0	4.664706e+01
507.726013	1.279531	mountain	1	1	0.751032	0.751032	0	0	1	0	CommissionError	1.152736	0.979880	0	0	4.735294e+01
509.005646	1.279727	city	9	1	0.857727	0.857727	0	1	0	0	CorrectCommission	0.719152	0.927655	0	0	4.805882e+01
510.285309	1.279596	city	2	1	0.916121	0.916121	0	1	0	0	CorrectCommission	0.481849	0.872831	0	0	4.876471e+01
511.564789	1.279409	city	9	1	1.603979	1.603979	0	1	0	0	CorrectCommission	2.313462	0.815898	0	0	4.947059e+01
512.844360	1.279733	city	1	1	0.924931	0.924931	0	1	0	0	CorrectCommission	0.446048	0.757349	0	0	5.017647e+01
514.124084	1.279635	city	3	1	0.822320	0.822320	0	1	0	0	CorrectCommission	0.863039	0.697942	1	0	5.088235e+01
515.403625	1.279546	city	5	1	0.855065	0.855065	0	1	0	0	CorrectCommission	0.729969	0.638737	1	0	5.158824e+01
516.683167	1.279556	city	1	1	1.156624	1.156624	0	1	0	0	CorrectCommission	0.495505	0.581152	1	0	5.229412e+01
517.962769	1.279599	city	10	1	1.124154	1.124154	0	1	0	0	CorrectCommission	0.363553	0.526884	1	0	53
519.242371	1.279556	city	3	1	1.124151	1.124151	0	1	0	0	CorrectCommission	0.363541	0.477727	1	0	5.370588e+01
520.521912	1.279599	city	2	1	1.016855	1.016855	0	1	0	0	CorrectCommission	0.072488	0.435381	1	0	5.441176e+01
521.801453	1.279493	city	1	1	1.039554	1.039554	0	1	0	0	CorrectCommission	0.019757	0.401215	1	0	5.511765e+01
523.081055	1.279644	mountain	6	0	0.000000	1.071806	1	0	0	0	CorrectOmission	0.150820	0.376180	1	0	5.582353e+01
524.360657	1.279582	city	3	1	1.068504	1.068504	0	1	0	0	CorrectCommission	0.137404	0.360680	1	0	5.652941e+01
525.640198	1.279445	city	1	1	0.984546	0.984546	0	1	0	0	CorrectCommission	0.203787	0.354514	1	0	5.723529e+01
526.919739	1.279709	city	4	1	1.230926	1.230926	0	1	0	0	CorrectCommission	0.797452	0.357007	1	0	5.794118e+01
528.206055	1.292900	city	2	1	1.062087	1.062087	0	1	0	0	CorrectCommission	0.111323	0.367095	1	0	5.864706e+01
529.492249	1.279478	city	9	1	1.100283	1.100283	0	1	0	0	CorrectCommission	0.266545	0.383479	1	0	5.935294e+01
530.771729	1.279557	city	6	1	1.020867	1.020867	0	1	0	0	CorrectCommission	0.056184	0.404714	1	0	6.005882e+01
532.051392	1.279725	city	7	1	1.027116	1.027116	0	1	0	0	CorrectCommission	0.030789	0.429406	1	0	6.076471e+01
533.331055	1.279569	city	6	1	1.425965	1.425965	0	1	0	0	CorrectCommission	1.590051	0.456313	1	0	6.147059e+01
534.610657	1.279602	city	1	1	1.036196	1.036196	0	1	0	0	CorrectCommission	0.006108	0.484389	1	0	6.217647e+01
535.890198	1.279561	city	10	1	0.928032	0.928032	0	1	0	0	CorrectCommission	0.433448	0.512925	1	0	6.288235e+01
537.169739	1.279439	city	7	1	1.281654	1.281654	0	1	0	0	CorrectCommission	1.003601	0.541473	1	0	6.358824e+01
538.449280	1.279724	city	5	1	1.099582	1.099582	0	1	0	0	CorrectCommission	0.263695	0.569862	1	0	6.429412e+01
539.089172	11.116541	break	0	0	1.181873	1.181873	0	0	0	0	ThoughtProbe	0.598112	0.598112	1	65	65
