onset	duration	trial_type	image_type	Press	ReactionTime	ReactionTime_Interpolated	CorrectOmission	CorrectCommission	CommissionError	OmissionError	response_type	nonsmoothVarianceTimeCourse	VarianceTimeCourse	In_the_Zone	ThoughtProbe	ThoughtProbe_Interpolated
0.653096	1.279552	city	3	1	1.731885	1.731885	0	1	0	0	CorrectCommission	1.339540	1.339540	0	0	44
1.932669	1.279593	city	7	1	1.177362	1.177362	0	1	0	0	CorrectCommission	0.452827	1.327056	0	0	44
3.212257	1.279582	city	2	1	0.769885	0.769885	0	1	0	0	CorrectCommission	1.769905	1.316163	0	0	44
4.498502	1.292909	city	4	1	0.767189	0.767189	0	1	0	0	CorrectCommission	1.778619	1.308159	0	0	44
5.784653	1.279393	city	1	1	0.914971	0.914971	0	1	0	0	CorrectCommission	1.300948	1.303950	0	0	44
7.070884	1.293067	city	2	1	1.617938	1.617938	0	1	0	0	CorrectCommission	0.971234	1.303859	0	0	44
8.357127	1.279420	city	4	1	1.178218	1.178218	0	1	0	0	CorrectCommission	0.450062	1.307515	0	0	44
9.636695	1.279715	city	10	1	1.018105	1.018105	0	1	0	0	CorrectCommission	0.967590	1.313905	0	0	44
10.936363	1.319622	mountain	10	0	0.000000	0.959976	1	0	0	0	CorrectOmission	1.155478	1.321415	0	0	44
12.242579	1.292810	city	8	1	0.890776	0.890776	0	1	0	0	CorrectCommission	1.379153	1.328127	0	0	44
13.528811	1.279653	city	1	1	0.697446	0.697446	0	1	0	0	CorrectCommission	2.004047	1.332058	0	0	44
14.808436	1.279599	city	10	1	0.821616	0.821616	0	1	0	0	CorrectCommission	1.602695	1.331483	0	0	44
16.088015	1.279557	city	7	1	0.836241	0.836241	0	1	0	0	CorrectCommission	1.555425	1.325226	0	0	44
17.374252	1.292919	mountain	3	1	0.655015	0.655015	0	0	1	0	CommissionError	2.141197	1.312794	0	0	44
18.660496	1.279568	city	9	1	0.768024	0.768024	0	1	0	0	CorrectCommission	1.775921	1.294379	0	0	44
19.946701	1.292843	city	10	1	1.722379	1.722379	0	1	0	0	CorrectCommission	1.308814	1.270787	0	0	44
21.232943	1.279640	city	4	1	1.444923	1.444923	0	1	0	0	CorrectCommission	0.412002	1.243158	0	0	44
22.512579	1.279632	city	9	1	1.124210	1.124210	0	1	0	0	CorrectCommission	0.624628	1.212755	0	0	44
23.818827	1.332863	city	4	1	1.685103	1.685103	0	1	0	0	CorrectCommission	1.188329	1.180667	0	0	44
25.125034	1.279549	city	9	1	1.249565	1.249565	0	1	0	0	CorrectCommission	0.219447	1.147719	0	0	44
26.417852	1.306087	city	8	1	0.876438	0.876438	0	1	0	0	CorrectCommission	1.425496	1.114443	0	0	44
27.710777	1.279764	mountain	4	1	0.539142	0.539142	0	0	1	0	CommissionError	2.515729	1.081078	0	0	44
28.990362	1.279407	city	2	1	0.857921	0.857921	0	1	0	0	CorrectCommission	1.485348	1.047793	0	0	44
30.269875	1.279619	city	3	1	1.517246	1.517246	0	1	0	0	CorrectCommission	0.645769	1.014856	0	0	44
31.549530	1.279689	city	7	1	1.136592	1.136592	0	1	0	0	CorrectCommission	0.584609	0.982632	0	0	44
32.829193	1.279638	city	9	1	1.510274	1.510274	0	1	0	0	CorrectCommission	0.623234	0.951670	0	0	44
34.115448	1.292872	city	3	1	1.751764	1.751764	0	1	0	0	CorrectCommission	1.403796	0.922698	0	0	44
35.408337	1.292909	city	9	1	1.325571	1.325571	0	1	0	0	CorrectCommission	0.026223	0.896534	0	0	44
36.694569	1.279551	city	8	1	0.918568	0.918568	0	1	0	0	CorrectCommission	1.289321	0.874050	0	0	44
37.974148	1.279607	city	3	1	1.569792	1.569792	0	1	0	0	CorrectCommission	0.815612	0.855998	0	0	44
39.260403	1.292902	city	1	1	1.053767	1.053767	0	1	0	0	CorrectCommission	0.852321	0.843014	0	0	44
40.546600	1.279493	city	8	1	1.456589	1.456589	0	1	0	0	CorrectCommission	0.449710	0.835501	0	0	44
41.846169	1.319647	city	10	1	1.008481	1.008481	0	1	0	0	CorrectCommission	0.998698	0.833613	0	0	44
43.152451	1.292914	city	2	1	1.471875	1.471875	0	1	0	0	CorrectCommission	0.499119	0.837195	0	0	44
44.438618	1.279418	city	5	1	0.929935	0.929935	0	1	0	0	CorrectCommission	1.252580	0.845780	0	0	44
45.724766	1.292885	city	4	1	1.369228	1.369228	0	1	0	0	CorrectCommission	0.167336	0.858524	0	0	44
47.011078	1.279739	city	7	1	0.923834	0.923834	0	1	0	0	CorrectCommission	1.272299	0.874340	0	0	44
48.290665	1.279433	city	10	1	1.461061	1.461061	0	1	0	0	CorrectCommission	0.464165	0.891856	0	0	44
49.590176	1.319588	city	1	1	1.740520	1.740520	0	1	0	0	CorrectCommission	1.367452	0.909626	0	0	44
53.362343	6.224742	break	0	1	1.221377	1.221377	0	0	0	0	ThoughtProbe	0.310559	0.926179	0	44	44
57.121189	1.292952	city	1	1	1.207528	1.207528	0	1	0	0	CorrectCommission	0.355323	0.940291	0	0	4.452941e+01
58.407368	1.279408	mountain	1	1	0.704810	0.704810	0	0	1	0	CommissionError	1.980245	0.951146	0	0	4.505882e+01
59.693600	1.293055	city	1	1	0.621068	0.621068	0	1	0	0	CorrectCommission	2.250920	0.958401	0	0	4.558824e+01
61.006531	1.332808	city	9	1	1.525030	1.525030	0	1	0	0	CorrectCommission	0.670928	0.962343	0	0	4.611765e+01
62.339413	1.332956	city	4	1	1.120258	1.120258	0	1	0	0	CorrectCommission	0.637404	0.963858	0	0	4.664706e+01
63.672272	1.332765	city	8	1	1.620319	1.620319	0	1	0	0	CorrectCommission	0.978930	0.964225	0	0	4.717647e+01
64.985184	1.293062	city	6	1	1.715200	1.715200	0	1	0	0	CorrectCommission	1.285610	0.964879	0	0	4.770588e+01
66.291481	1.319526	city	8	1	1.235030	1.235030	0	1	0	0	CorrectCommission	0.266428	0.967112	0	0	4.823529e+01
67.604370	1.306259	city	7	1	1.602980	1.602980	0	1	0	0	CorrectCommission	0.922884	0.971796	0	0	4.876471e+01
68.910622	1.306240	city	4	1	1.095267	1.095267	0	1	0	0	CorrectCommission	0.718181	0.979154	0	0	4.929412e+01
70.223541	1.319590	city	5	1	1.269915	1.269915	0	1	0	0	CorrectCommission	0.153672	0.988652	0	0	4.982353e+01
71.523132	1.279595	city	2	1	0.965443	0.965443	0	1	0	0	CorrectCommission	1.137809	0.999067	0	0	5.035294e+01
72.815987	1.306111	city	5	1	0.788924	0.788924	0	1	0	0	CorrectCommission	1.708366	1.008585	0	0	5.088235e+01
74.108887	1.279689	city	1	1	1.723575	1.723575	0	1	0	0	CorrectCommission	1.312682	1.015145	0	0	5.141176e+01
75.388504	1.279552	mountain	5	0	0.000000	1.445652	1	0	0	0	CorrectOmission	0.414359	1.016747	0	0	5.194118e+01
76.681328	1.306103	city	4	1	0.832192	0.832192	0	1	0	0	CorrectCommission	1.568511	1.011777	0	0	5.247059e+01
77.987579	1.306391	city	9	1	0.760233	0.760233	0	1	0	0	CorrectCommission	1.801103	0.999222	0	0	53
79.300545	1.319538	city	6	1	1.808443	1.808443	0	1	0	0	CorrectCommission	1.586999	0.978901	0	0	5.352941e+01
80.613434	1.306246	city	7	1	1.426950	1.426950	0	1	0	0	CorrectCommission	0.353909	0.951443	0	0	5.405882e+01
81.913010	1.292905	city	3	1	1.084700	1.084700	0	1	0	0	CorrectCommission	0.752336	0.918280	0	0	5.458824e+01
83.205841	1.292752	city	8	1	0.821284	0.821284	0	1	0	0	CorrectCommission	1.603770	0.881344	0	0	5.511765e+01
84.492088	1.279749	city	2	1	1.379095	1.379095	0	1	0	0	CorrectCommission	0.199228	0.842932	0	0	5.564706e+01
85.805084	1.346240	city	1	1	1.071557	1.071557	0	1	0	0	CorrectCommission	0.794820	0.805453	0	0	5.617647e+01
87.137970	1.319539	city	8	1	1.440183	1.440183	0	1	0	0	CorrectCommission	0.396680	0.771094	1	0	5.670588e+01
88.457458	1.319433	city	7	1	1.072537	1.072537	0	1	0	0	CorrectCommission	0.791651	0.741692	1	0	5.723529e+01
89.777016	1.319681	city	5	1	0.997077	0.997077	0	1	0	0	CorrectCommission	1.035557	0.718594	1	0	5.776471e+01
91.089989	1.306271	city	8	1	1.225190	1.225190	0	1	0	0	CorrectCommission	0.298235	0.702569	1	0	5.829412e+01
92.396248	1.306237	city	3	1	1.286047	1.286047	0	1	0	0	CorrectCommission	0.101528	0.693818	1	0	5.882353e+01
93.709137	1.319547	city	5	1	1.472712	1.472712	0	1	0	0	CorrectCommission	0.501822	0.691983	1	0	5.935294e+01
95.028702	1.319580	city	6	1	1.119669	1.119669	0	1	0	0	CorrectCommission	0.639307	0.696231	1	0	5.988235e+01
96.334946	1.292917	city	2	1	0.921430	0.921430	0	1	0	0	CorrectCommission	1.280071	0.705382	1	0	6.041176e+01
97.627777	1.292740	city	6	1	1.206433	1.206433	0	1	0	0	CorrectCommission	0.358862	0.717982	1	0	6.094118e+01
98.934006	1.319713	city	4	1	1.610619	1.610619	0	1	0	0	CorrectCommission	0.947575	0.732492	1	0	6.147059e+01
102.106323	5.024927	break	0	0	0.000000	1.561208	0	0	0	0	ThoughtProbe	0.787865	0.747323	1	62	62
105.271935	1.306300	city	5	1	1.260744	1.260744	0	1	0	0	CorrectCommission	0.183315	0.760956	1	0	6.171739e+01
106.564896	1.279620	city	4	1	0.911772	0.911772	0	1	0	0	CorrectCommission	1.311288	0.772059	1	0	6.143478e+01
107.857742	1.306069	city	2	1	1.645264	1.645264	0	1	0	0	CorrectCommission	1.059558	0.779525	1	0	6.115217e+01
109.163918	1.306275	city	7	1	1.151414	1.151414	0	1	0	0	CorrectCommission	0.536700	0.782564	1	0	6.086957e+01
110.483559	1.333006	city	5	1	1.684053	1.684053	0	1	0	0	CorrectCommission	1.184936	0.780780	1	0	6.058696e+01
111.823105	1.346088	city	4	1	1.301199	1.301199	0	1	0	0	CorrectCommission	0.052552	0.774156	1	0	6.030435e+01
113.136009	1.279727	city	1	1	0.827429	0.827429	0	1	0	0	CorrectCommission	1.583906	0.763180	1	0	6.002174e+01
114.442322	1.332902	city	2	1	1.694564	1.694564	0	1	0	0	CorrectCommission	1.218911	0.748676	1	0	5.973913e+01
115.791595	1.365634	mountain	10	0	0.000000	1.568686	1	0	0	0	CorrectOmission	0.812038	0.731827	1	0	5.945652e+01
117.144470	1.340129	city	4	1	1.158234	1.158234	0	1	0	0	CorrectCommission	0.514656	0.714051	1	0	5.917391e+01
118.460991	1.292903	mountain	10	0	0.000000	1.171647	1	0	0	0	CorrectOmission	0.471301	0.696782	1	0	5.889130e+01
119.753822	1.292767	city	4	1	1.371650	1.371650	0	1	0	0	CorrectCommission	0.175165	0.681345	1	0	5.860870e+01
121.053329	1.306249	mountain	5	0	0.000000	1.520969	1	0	0	0	CorrectOmission	0.657803	0.668793	1	0	5.832609e+01
122.346245	1.279572	city	5	1	1.527704	1.527704	0	1	0	0	CorrectCommission	0.679574	0.659816	1	0	5.804348e+01
123.625809	1.279552	city	6	1	1.299959	1.299959	0	1	0	0	CorrectCommission	0.056562	0.654678	1	0	5.776087e+01
124.905373	1.279575	city	5	1	0.921206	0.921206	0	1	0	0	CorrectCommission	1.280793	0.653273	1	0	5.747826e+01
126.191620	1.292932	city	2	1	1.484127	1.484127	0	1	0	0	CorrectCommission	0.538720	0.655125	1	0	5.719565e+01
127.497948	1.319725	city	5	1	1.180154	1.180154	0	1	0	0	CorrectCommission	0.443802	0.659560	1	0	5.691304e+01
128.804260	1.292888	city	4	1	0.923616	0.923616	0	1	0	0	CorrectCommission	1.273003	0.665732	1	0	5.663043e+01
130.117081	1.332755	city	2	1	1.275093	1.275093	0	1	0	0	CorrectCommission	0.136934	0.672764	1	0	5.634783e+01
131.423325	1.279728	city	7	1	1.526659	1.526659	0	1	0	0	CorrectCommission	0.676194	0.679854	1	0	5.606522e+01
132.722931	1.319488	city	2	1	1.034669	1.034669	0	1	0	0	CorrectCommission	0.914049	0.686293	1	0	5.578261e+01
134.035843	1.306336	city	1	1	1.229001	1.229001	0	1	0	0	CorrectCommission	0.285918	0.691562	1	0	5.550000e+01
135.342041	1.306077	city	6	1	0.936728	0.936728	0	1	0	0	CorrectCommission	1.230624	0.695388	1	0	5.521739e+01
136.668182	1.346200	city	1	1	1.423458	1.423458	0	1	0	0	CorrectCommission	0.342620	0.697723	1	0	5.493478e+01
138.001068	1.319567	city	6	1	1.673041	1.673041	0	1	0	0	CorrectCommission	1.149343	0.698833	1	0	5.465217e+01
139.307388	1.293070	city	10	1	1.190965	1.190965	0	1	0	0	CorrectCommission	0.408859	0.699211	1	0	5.436957e+01
140.613708	1.319560	city	5	1	0.993201	0.993201	0	1	0	0	CorrectCommission	1.048086	0.699574	1	0	5.408696e+01
141.939941	1.332920	city	2	1	0.943422	0.943422	0	1	0	0	CorrectCommission	1.208985	0.700683	1	0	5.380435e+01
143.259460	1.306122	city	7	1	1.424781	1.424781	0	1	0	0	CorrectCommission	0.346899	0.703284	1	0	5.352174e+01
144.559036	1.293020	mountain	5	0	0.000000	1.371722	1	0	0	0	CorrectOmission	0.175397	0.707998	1	0	5.323913e+01
145.845322	1.279569	city	6	1	1.310187	1.310187	0	1	0	0	CorrectCommission	0.023501	0.715202	1	0	5.295652e+01
147.138229	1.306225	city	3	1	1.766118	1.766118	0	1	0	0	CorrectCommission	1.450192	0.724981	1	0	5.267391e+01
148.457718	1.332757	city	1	1	1.311070	1.311070	0	1	0	0	CorrectCommission	0.020646	0.737102	1	0	5.239130e+01
149.763962	1.279744	city	9	1	1.489617	1.489617	0	1	0	0	CorrectCommission	0.556464	0.751192	1	0	5.210870e+01
151.083481	1.359296	city	5	1	1.722503	1.722503	0	1	0	0	CorrectCommission	1.309216	0.766729	1	0	5.182609e+01
152.422989	1.319723	city	8	1	1.804175	1.804175	0	1	0	0	CorrectCommission	1.573204	0.783244	1	0	5.154348e+01
153.782700	1.399679	city	7	1	1.111303	1.111303	0	1	0	0	CorrectCommission	0.666350	0.800325	0	0	5.126087e+01
155.135620	1.306170	city	10	1	1.562805	1.562805	0	1	0	0	CorrectCommission	0.793029	0.817727	0	0	5.097826e+01
156.435089	1.292771	city	9	1	1.084915	1.084915	0	1	0	0	CorrectCommission	0.751642	0.835256	0	0	5.069565e+01
157.727936	1.292930	city	2	1	1.052326	1.052326	0	1	0	0	CorrectCommission	0.856978	0.852703	0	0	5.041304e+01
159.027588	1.306365	city	3	1	1.340009	1.340009	0	1	0	0	CorrectCommission	0.072890	0.869775	0	0	5.013043e+01
160.347137	1.332721	city	4	1	1.562829	1.562829	0	1	0	0	CorrectCommission	0.793105	0.886028	0	0	4.984783e+01
161.666656	1.306310	city	8	1	1.102997	1.102997	0	1	0	0	CorrectCommission	0.693195	0.900848	0	0	4.956522e+01
162.972931	1.306258	city	2	1	1.098532	1.098532	0	1	0	0	CorrectCommission	0.707627	0.913589	0	0	4.928261e+01
167.011581	6.771034	break	0	1	0.556965	0.556965	0	0	0	0	ThoughtProbe	2.458121	0.923646	0	49	49
171.036926	1.279648	city	5	1	1.799418	1.799418	0	1	0	0	CorrectCommission	1.557825	0.930573	0	0	4.923529e+01
172.349808	1.346132	city	4	1	1.087780	1.087780	0	1	0	0	CorrectCommission	0.742383	0.934238	0	0	4.947059e+01
173.689407	1.333064	city	1	1	1.421504	1.421504	0	1	0	0	CorrectCommission	0.336305	0.934834	0	0	4.970588e+01
175.002411	1.292927	city	6	1	1.424273	1.424273	0	1	0	0	CorrectCommission	0.345254	0.932834	0	0	4.994118e+01
176.288651	1.279578	city	9	1	0.915046	0.915046	0	1	0	0	CorrectCommission	1.300705	0.928896	0	0	5.017647e+01
177.583221	1.309538	mountain	2	0	0.000000	0.882172	1	0	0	0	CorrectOmission	1.406963	0.923776	0	0	5.041176e+01
178.882736	1.289493	city	3	1	1.179989	1.179989	0	1	0	0	CorrectCommission	0.444337	0.918243	0	0	5.064706e+01
180.193939	1.332913	city	2	1	1.662835	1.662835	0	1	0	0	CorrectCommission	1.116354	0.912952	0	0	5.088235e+01
181.520203	1.319640	city	5	1	1.165416	1.165416	0	1	0	0	CorrectCommission	0.491440	0.908319	0	0	5.111765e+01
182.819763	1.279484	city	8	1	0.784154	0.784154	0	1	0	0	CorrectCommission	1.723784	0.904574	0	0	5.135294e+01
184.119263	1.319495	city	7	1	1.268509	1.268509	0	1	0	0	CorrectCommission	0.158217	0.901666	0	0	5.158824e+01
185.425552	1.293089	city	4	1	1.607449	1.607449	0	1	0	0	CorrectCommission	0.937331	0.899320	0	0	5.182353e+01
186.758438	1.372695	city	5	1	1.076467	1.076467	0	1	0	0	CorrectCommission	0.778949	0.897011	0	0	5.205882e+01
188.104660	1.319737	city	7	1	1.648174	1.648174	0	1	0	0	CorrectCommission	1.068966	0.894068	0	0	5.229412e+01
189.410904	1.292749	city	8	1	0.925233	0.925233	0	1	0	0	CorrectCommission	1.267777	0.889731	0	0	5.252941e+01
190.717072	1.319590	city	5	1	1.165548	1.165548	0	1	0	0	CorrectCommission	0.491014	0.883239	0	0	5.276471e+01
192.030014	1.306281	city	1	1	1.084794	1.084794	0	1	0	0	CorrectCommission	0.752034	0.873949	0	0	53
193.342987	1.319681	city	8	1	0.954822	0.954822	0	1	0	0	CorrectCommission	1.172138	0.861385	0	0	5.323529e+01
194.675964	1.346256	city	5	1	1.717825	1.717825	0	1	0	0	CorrectCommission	1.294096	0.845338	0	0	5.347059e+01
196.008835	1.319506	city	4	1	1.590753	1.590753	0	1	0	0	CorrectCommission	0.883363	0.825888	0	0	5.370588e+01
197.315048	1.292927	city	2	1	1.111857	1.111857	0	1	0	0	CorrectCommission	0.664557	0.803470	0	0	5.394118e+01
198.607956	1.292887	city	9	1	1.071775	1.071775	0	1	0	0	CorrectCommission	0.794115	0.778774	1	0	5.417647e+01
199.907455	1.306092	city	6	1	1.624540	1.624540	0	1	0	0	CorrectCommission	0.992572	0.752749	1	0	5.441176e+01
201.240356	1.359720	city	1	1	1.274869	1.274869	0	1	0	0	CorrectCommission	0.137658	0.726498	1	0	5.464706e+01
202.559921	1.279411	mountain	6	0	0.000000	1.558910	1	0	0	0	CorrectOmission	0.780440	0.701192	1	0	5.488235e+01
203.839493	1.279742	city	2	1	1.802671	1.802671	0	1	0	0	CorrectCommission	1.568342	0.677927	1	0	5.511765e+01
205.132416	1.306105	city	10	1	1.332161	1.332161	0	1	0	0	CorrectCommission	0.047524	0.657620	1	0	5.535294e+01
206.425247	1.279537	city	4	1	1.328038	1.328038	0	1	0	0	CorrectCommission	0.034198	0.641002	1	0	5.558824e+01
207.718216	1.306404	city	6	1	1.239166	1.239166	0	1	0	0	CorrectCommission	0.253061	0.628507	1	0	5.582353e+01
209.024536	1.306243	city	7	1	1.762877	1.762877	0	1	0	0	CorrectCommission	1.439714	0.620261	1	0	5.605882e+01
210.337357	1.319382	city	1	1	1.289881	1.289881	0	1	0	0	CorrectCommission	0.089135	0.616120	1	0	5.629412e+01
211.650223	1.306361	city	5	1	1.597942	1.597942	0	1	0	0	CorrectCommission	0.906601	0.615757	1	0	5.652941e+01
212.943146	1.279496	city	8	1	1.306490	1.306490	0	1	0	0	CorrectCommission	0.035452	0.618732	1	0	5.676471e+01
216.535187	5.904580	break	0	0	0.000000	1.056459	0	0	0	0	ThoughtProbe	0.843618	0.624594	1	57	57
220.127335	1.279722	city	8	1	1.090369	1.090369	0	1	0	0	CorrectCommission	0.734014	0.632900	1	0	5.636957e+01
221.433716	1.333025	city	6	1	1.650735	1.650735	0	1	0	0	CorrectCommission	1.077243	0.643315	1	0	5.573913e+01
222.793243	1.386041	city	7	1	1.284219	1.284219	0	1	0	0	CorrectCommission	0.107438	0.655589	1	0	5.510870e+01
224.132812	1.293092	city	3	1	1.694679	1.694679	0	1	0	0	CorrectCommission	1.219282	0.669564	1	0	5.447826e+01
225.432495	1.306257	city	5	1	1.312485	1.312485	0	1	0	0	CorrectCommission	0.016072	0.685041	1	0	5.384783e+01
226.731964	1.292708	city	9	1	1.552212	1.552212	0	1	0	0	CorrectCommission	0.758790	0.701788	1	0	5.321739e+01
228.058182	1.359714	city	1	1	1.153051	1.153051	0	1	0	0	CorrectCommission	0.531407	0.719410	1	0	5.258696e+01
229.397751	1.319431	city	9	1	1.621692	1.621692	0	1	0	0	CorrectCommission	0.983369	0.737372	1	0	5.195652e+01
230.710571	1.306211	city	5	1	1.041993	1.041993	0	1	0	0	CorrectCommission	0.890378	0.754982	1	0	5.132609e+01
232.036880	1.346385	city	4	1	1.463404	1.463404	0	1	0	0	CorrectCommission	0.471738	0.771451	1	0	5.069565e+01
233.369858	1.319567	mountain	10	1	1.056458	1.056458	0	0	1	0	CommissionError	0.843623	0.785974	1	0	5.006522e+01
234.669434	1.279605	city	4	1	1.498694	1.498694	0	1	0	0	CorrectCommission	0.585805	0.797838	1	0	4.943478e+01
235.962341	1.306209	mountain	5	0	0.000000	1.702750	1	0	0	0	CorrectOmission	1.245368	0.806530	0	0	4.880435e+01
237.268570	1.306236	mountain	7	0	0.000000	1.731373	1	0	0	0	CorrectOmission	1.337887	0.811790	0	0	4.817391e+01
238.568146	1.292926	city	7	1	1.647313	1.647313	0	1	0	0	CorrectCommission	1.066182	0.813727	0	0	4.754348e+01
239.867645	1.306054	city	6	1	1.513319	1.513319	0	1	0	0	CorrectCommission	0.633075	0.812733	0	0	4.691304e+01
241.187210	1.333096	city	7	1	1.280962	1.280962	0	1	0	0	CorrectCommission	0.117965	0.809462	0	0	4.628261e+01
242.506775	1.306037	city	10	1	0.911862	0.911862	0	1	0	0	CorrectCommission	1.310995	0.804651	0	0	4.565217e+01
243.832993	1.346393	city	1	1	1.672244	1.672244	0	1	0	0	CorrectCommission	1.146764	0.799029	1	0	4.502174e+01
245.179291	1.346209	city	3	1	1.243556	1.243556	0	1	0	0	CorrectCommission	0.238871	0.793183	1	0	4.439130e+01
246.492203	1.279612	city	4	1	1.433250	1.433250	0	1	0	0	CorrectCommission	0.374270	0.787506	1	0	4.376087e+01
247.805130	1.346230	city	2	1	0.998826	0.998826	0	1	0	0	CorrectCommission	1.029906	0.782088	1	0	4.313043e+01
249.117950	1.279413	city	3	1	1.579254	1.579254	0	1	0	0	CorrectCommission	0.846195	0.776751	1	0	4.250000e+01
250.437424	1.359527	city	5	1	1.021052	1.021052	0	1	0	0	CorrectCommission	0.958064	0.771133	1	0	4.186957e+01
251.757065	1.279768	city	6	1	1.100729	1.100729	0	1	0	0	CorrectCommission	0.700528	0.764807	1	0	4.123913e+01
253.076706	1.359529	city	1	1	1.512265	1.512265	0	1	0	0	CorrectCommission	0.629671	0.757351	1	0	4.060870e+01
254.436218	1.359476	city	4	1	1.091568	1.091568	0	1	0	0	CorrectCommission	0.730138	0.748509	1	0	3.997826e+01
255.789032	1.346147	city	3	1	1.632121	1.632121	0	1	0	0	CorrectCommission	1.017076	0.738240	1	0	3.934783e+01
257.128632	1.333047	city	10	1	1.011749	1.011749	0	1	0	0	CorrectCommission	0.988134	0.726766	1	0	3.871739e+01
258.454926	1.319566	city	6	1	1.620686	1.620686	0	1	0	0	CorrectCommission	0.980115	0.714536	1	0	3.808696e+01
259.801086	1.372719	city	3	1	1.128640	1.128640	0	1	0	0	CorrectCommission	0.610309	0.702162	1	0	3.745652e+01
261.147308	1.319741	city	2	1	1.274619	1.274619	0	1	0	0	CorrectCommission	0.138468	0.690301	1	0	3.682609e+01
262.453613	1.292872	city	1	1	1.434379	1.434379	0	1	0	0	CorrectCommission	0.377921	0.679532	1	0	3.619565e+01
263.739838	1.279607	city	9	1	0.940326	0.940326	0	1	0	0	CorrectCommission	1.218992	0.670221	1	0	3.556522e+01
265.072662	1.386048	city	2	1	1.301627	1.301627	0	1	0	0	CorrectCommission	0.051168	0.662418	1	0	3.493478e+01
266.425568	1.319745	city	9	1	1.671881	1.671881	0	1	0	0	CorrectCommission	1.145593	0.655932	1	0	3.430435e+01
267.738556	1.306222	mountain	7	0	0.000000	1.362678	1	0	0	0	CorrectOmission	0.146164	0.650265	1	0	3.367391e+01
269.058105	1.332892	city	3	1	1.049969	1.049969	0	1	0	0	CorrectCommission	0.864596	0.644826	1	0	3.304348e+01
270.371002	1.292902	city	10	1	1.409706	1.409706	0	1	0	0	CorrectCommission	0.298170	0.638987	1	0	3.241304e+01
271.677155	1.319406	city	8	1	1.665171	1.665171	0	1	0	0	CorrectCommission	1.123904	0.632276	1	0	3.178261e+01
272.990051	1.306373	city	6	1	1.006776	1.006776	0	1	0	0	CorrectCommission	1.004208	0.624504	1	0	3.115217e+01
274.303040	1.319596	city	1	1	1.524479	1.524479	0	1	0	0	CorrectCommission	0.669150	0.615856	1	0	3.052174e+01
275.629211	1.332754	city	2	1	1.416699	1.416699	0	1	0	0	CorrectCommission	0.320774	0.606924	1	0	2.989130e+01
276.988708	1.386261	city	10	1	1.020649	1.020649	0	1	0	0	CorrectCommission	0.959366	0.598634	1	0	2.926087e+01
278.361603	1.359496	city	8	1	1.422968	1.422968	0	1	0	0	CorrectCommission	0.341037	0.592140	1	0	2.863043e+01
281.587219	5.091745	break	0	0	0.000000	1.248546	0	0	0	0	ThoughtProbe	0.222743	0.588726	1	28	28
284.812897	1.359604	city	10	1	1.073002	1.073002	0	1	0	0	CorrectCommission	0.790148	0.589579	1	0	2.911765e+01
286.145752	1.306106	city	1	1	1.471956	1.471956	0	1	0	0	CorrectCommission	0.499380	0.595629	1	0	3.023529e+01
287.451996	1.306378	city	9	1	1.366523	1.366523	0	1	0	0	CorrectCommission	0.158593	0.607470	1	0	3.135294e+01
288.778290	1.346213	mountain	7	0	0.000000	1.420021	1	0	0	0	CorrectOmission	0.331513	0.625234	1	0	3.247059e+01
290.091125	1.279459	city	6	1	1.360397	1.360397	0	1	0	0	CorrectCommission	0.138791	0.648590	1	0	3.358824e+01
291.417358	1.373006	city	9	1	0.915597	0.915597	0	1	0	0	CorrectCommission	1.298924	0.676816	1	0	3.470588e+01
292.750305	1.292906	city	1	1	1.692651	1.692651	0	1	0	0	CorrectCommission	1.212725	0.708796	1	0	3.582353e+01
294.043152	1.292749	city	5	1	1.270289	1.270289	0	1	0	0	CorrectCommission	0.152462	0.743248	1	0	3.694118e+01
295.335999	1.292963	city	9	1	1.660873	1.660873	0	1	0	0	CorrectCommission	1.110011	0.778759	1	0	3.805882e+01
296.648987	1.333003	city	3	1	1.445290	1.445290	0	1	0	0	CorrectCommission	0.413190	0.813873	0	0	3.917647e+01
297.975189	1.319410	city	8	1	0.996945	0.996945	0	1	0	0	CorrectCommission	1.035986	0.847292	0	0	4.029412e+01
299.294678	1.319566	city	10	1	1.467225	1.467225	0	1	0	0	CorrectCommission	0.484087	0.877894	0	0	4.141176e+01
300.627655	1.346382	city	3	1	1.123007	1.123007	0	1	0	0	CorrectCommission	0.628520	0.904861	0	0	4.252941e+01
301.967194	1.332738	mountain	5	1	0.562883	0.562883	0	0	1	0	CommissionError	2.438990	0.927732	0	0	4.364706e+01
303.286774	1.306388	city	2	1	1.628896	1.628896	0	1	0	0	CorrectCommission	1.006652	0.946356	0	0	4.476471e+01
304.599762	1.319573	city	5	1	1.668433	1.668433	0	1	0	0	CorrectCommission	1.134446	0.960981	0	0	4.588235e+01
305.925903	1.332761	city	4	1	1.529346	1.529346	0	1	0	0	CorrectCommission	0.684879	0.972044	0	0	47
307.245483	1.306366	city	6	1	1.421824	1.421824	0	1	0	0	CorrectCommission	0.337339	0.980099	0	0	4.811765e+01
308.558472	1.319588	city	1	1	1.779224	1.779224	0	1	0	0	CorrectCommission	1.492555	0.985676	0	0	4.923529e+01
309.877960	1.319393	city	5	1	1.559225	1.559225	0	1	0	0	CorrectCommission	0.781458	0.989086	0	0	5.035294e+01
311.210815	1.346367	city	9	1	1.144022	1.144022	0	1	0	0	CorrectCommission	0.560591	0.990460	0	0	5.147059e+01
312.550385	1.332776	city	5	1	1.773327	1.773327	0	1	0	0	CorrectCommission	1.473494	0.989674	0	0	5.258824e+01
313.903290	1.373029	city	1	1	1.567747	1.567747	0	1	0	0	CorrectCommission	0.809002	0.986393	0	0	5.370588e+01
315.242920	1.306217	city	4	1	1.077722	1.077722	0	1	0	0	CorrectCommission	0.774892	0.980271	0	0	5.482353e+01
316.582458	1.372866	city	5	1	0.654358	0.654358	0	1	0	0	CorrectCommission	2.143319	0.971009	0	0	5.594118e+01
317.928619	1.319421	city	8	1	1.380964	1.380964	0	1	0	0	CorrectCommission	0.205270	0.958499	0	0	5.705882e+01
319.308167	1.439691	city	6	1	1.930140	1.930140	0	1	0	0	CorrectCommission	1.980356	0.943000	0	0	5.817647e+01
320.701141	1.346235	city	2	1	1.230617	1.230617	0	1	0	0	CorrectCommission	0.280692	0.925009	0	0	5.929412e+01
322.027313	1.306119	city	5	1	1.593278	1.593278	0	1	0	0	CorrectCommission	0.891527	0.905436	0	0	6.041176e+01
323.373474	1.386218	city	8	1	1.119484	1.119484	0	1	0	0	CorrectCommission	0.639906	0.885417	0	0	6.152941e+01
324.739685	1.346171	city	1	1	1.769072	1.769072	0	1	0	0	CorrectCommission	1.459739	0.866249	0	0	6.264706e+01
326.085815	1.346140	city	8	1	1.315972	1.315972	0	1	0	0	CorrectCommission	0.004804	0.849279	0	0	6.376471e+01
327.412140	1.306466	city	6	1	1.795887	1.795887	0	1	0	0	CorrectCommission	1.546414	0.835837	0	0	6.488235e+01
330.084656	4.038586	break	0	0	0.000000	1.382952	0	0	0	0	ThoughtProbe	0.211696	0.827048	0	66	66
332.757111	1.306352	city	2	1	0.977490	0.977490	0	1	0	0	CorrectCommission	1.098870	0.823821	0	0	6.530000e+01
334.076752	1.332879	city	3	1	1.479822	1.479822	0	1	0	0	CorrectCommission	0.524804	0.826646	0	0	6.460000e+01
335.409546	1.332719	mountain	6	0	0.000000	1.234622	1	0	0	0	CorrectOmission	0.267749	0.835634	0	0	6.390000e+01
336.769012	1.386229	city	8	1	0.991143	0.991143	0	1	0	0	CorrectCommission	1.054737	0.850418	0	0	6.320000e+01
338.115326	1.306382	city	9	1	1.498640	1.498640	0	1	0	0	CorrectCommission	0.585631	0.870154	0	0	6.250000e+01
339.448212	1.359420	city	2	1	1.716026	1.716026	0	1	0	0	CorrectCommission	1.288282	0.893572	0	0	6.180000e+01
340.847778	1.439674	city	6	1	1.561607	1.561607	0	1	0	0	CorrectCommission	0.789158	0.918968	0	0	6.110000e+01
342.254059	1.372898	city	9	1	1.103172	1.103172	0	1	0	0	CorrectCommission	0.692630	0.944393	0	0	6.040000e+01
343.600250	1.319528	city	1	1	1.767800	1.767800	0	1	0	0	CorrectCommission	1.455628	0.967774	0	0	5.970000e+01
344.919830	1.319600	city	8	1	1.388567	1.388567	0	1	0	0	CorrectCommission	0.229842	0.987068	0	0	59
346.286011	1.412774	city	2	1	1.668443	1.668443	0	1	0	0	CorrectCommission	1.134480	1.000580	0	0	5.830000e+01
347.665558	1.346291	city	6	1	1.808606	1.808606	0	1	0	0	CorrectCommission	1.587524	1.007063	0	0	5.760000e+01
348.998383	1.319406	city	2	1	0.979163	0.979163	0	1	0	0	CorrectCommission	1.093462	1.005951	0	0	5.690000e+01
350.304626	1.293085	mountain	7	0	0.000000	0.645011	1	0	0	0	CorrectOmission	2.173532	0.997469	0	0	5.620000e+01
351.597626	1.292913	city	8	1	0.804274	0.804274	0	1	0	0	CorrectCommission	1.658748	0.982557	0	0	5.550000e+01
352.903809	1.319424	city	1	1	1.455078	1.455078	0	1	0	0	CorrectCommission	0.444827	0.962794	0	0	5.480000e+01
354.249939	1.372842	city	8	1	1.256931	1.256931	0	1	0	0	CorrectCommission	0.195639	0.940160	0	0	5.410000e+01
355.602905	1.333079	city	5	1	1.144178	1.144178	0	1	0	0	CorrectCommission	0.560088	0.916683	0	0	5.340000e+01
356.935791	1.332711	city	1	1	1.744749	1.744749	0	1	0	0	CorrectCommission	1.381122	0.894143	0	0	5.270000e+01
358.268677	1.333076	mountain	9	0	0.000000	1.498615	1	0	0	0	CorrectOmission	0.585549	0.873883	0	0	52
359.588348	1.306231	city	1	1	1.128628	1.128628	0	1	0	0	CorrectCommission	0.610349	0.856654	0	0	5.130000e+01
360.901184	1.319426	city	3	1	1.357641	1.357641	0	1	0	0	CorrectCommission	0.129883	0.842605	0	0	5.060000e+01
362.254059	1.386376	city	5	1	1.425931	1.425931	0	1	0	0	CorrectCommission	0.350614	0.831405	0	0	4.990000e+01
363.646942	1.399358	city	3	1	0.736802	0.736802	0	1	0	0	CorrectCommission	1.876838	0.822433	0	0	4.920000e+01
365.013153	1.333066	city	10	1	1.802277	1.802277	0	1	0	0	CorrectCommission	1.567066	0.814962	0	0	4.850000e+01
366.339447	1.319546	city	3	1	1.634573	1.634573	0	1	0	0	CorrectCommission	1.025002	0.808430	0	0	4.780000e+01
367.685669	1.372896	city	9	1	1.161171	1.161171	0	1	0	0	CorrectCommission	0.505163	0.802504	0	0	4.710000e+01
369.025238	1.306233	city	7	1	1.504709	1.504709	0	1	0	0	CorrectCommission	0.605247	0.797107	1	0	4.640000e+01
370.391357	1.426015	city	5	1	1.274407	1.274407	0	1	0	0	CorrectCommission	0.139152	0.792379	1	0	4.570000e+01
371.757599	1.306416	city	10	1	1.661285	1.661285	0	1	0	0	CorrectCommission	1.111343	0.788566	1	0	45
373.077148	1.332735	city	2	1	1.249739	1.249739	0	1	0	0	CorrectCommission	0.218885	0.785878	1	0	4.430000e+01
374.396667	1.306280	city	6	1	1.790943	1.790943	0	1	0	0	CorrectCommission	1.530432	0.784460	1	0	4.360000e+01
375.742889	1.386168	city	9	1	1.306141	1.306141	0	1	0	0	CorrectCommission	0.036579	0.784252	1	0	4.290000e+01
377.095825	1.319711	city	4	1	0.836670	0.836670	0	1	0	0	CorrectCommission	1.554038	0.785062	1	0	4.220000e+01
378.468781	1.426182	city	6	1	1.380001	1.380001	0	1	0	0	CorrectCommission	0.202157	0.786497	1	0	4.150000e+01
379.881561	1.399391	city	3	1	0.836753	0.836753	0	1	0	0	CorrectCommission	1.553770	0.788082	1	0	4.080000e+01
381.261047	1.359555	city	1	1	1.177504	1.177504	0	1	0	0	CorrectCommission	0.452370	0.789208	1	0	4.010000e+01
382.600647	1.319697	city	6	1	1.437013	1.437013	0	1	0	0	CorrectCommission	0.386434	0.789268	1	0	3.940000e+01
383.973633	1.426245	city	2	1	1.021363	1.021363	0	1	0	0	CorrectCommission	0.957060	0.787607	1	0	3.870000e+01
387.645782	5.918024	break	0	1	0.983071	0.983071	0	0	0	0	ThoughtProbe	1.080831	0.783561	1	38	38
391.244476	1.279424	city	5	1	1.500863	1.500863	0	1	0	0	CorrectCommission	0.592816	0.776491	1	0	3.805000e+01
392.570648	1.372916	city	2	1	1.034454	1.034454	0	1	0	0	CorrectCommission	0.914746	0.765875	1	0	3.810000e+01
393.910309	1.306394	city	10	1	1.653123	1.653123	0	1	0	0	CorrectCommission	1.084962	0.751328	1	0	3.815000e+01
395.256775	1.386504	city	5	1	1.316879	1.316879	0	1	0	0	CorrectCommission	0.001870	0.732689	1	0	3.820000e+01
396.616302	1.332583	city	4	1	1.835060	1.835060	0	1	0	0	CorrectCommission	1.673030	0.710143	1	0	3.825000e+01
397.969055	1.372890	mountain	1	0	0.000000	1.472639	1	0	0	0	CorrectOmission	0.501587	0.684132	1	0	3.830000e+01
399.308533	1.306106	city	6	1	1.129744	1.129744	0	1	0	0	CorrectCommission	0.606743	0.655579	1	0	3.835000e+01
400.641418	1.359665	city	1	1	1.706502	1.706502	0	1	0	0	CorrectCommission	1.257497	0.625742	1	0	3.840000e+01
402.001068	1.359597	city	5	1	1.314617	1.314617	0	1	0	0	CorrectCommission	0.009184	0.596208	1	0	3.845000e+01
403.353882	1.346034	city	4	1	1.599861	1.599861	0	1	0	0	CorrectCommission	0.912803	0.568803	1	0	3.850000e+01
404.746704	1.439598	city	8	1	1.325652	1.325652	0	1	0	0	CorrectCommission	0.026486	0.545368	1	0	3.855000e+01
406.179565	1.426137	city	4	1	1.494350	1.494350	0	1	0	0	CorrectCommission	0.571763	0.527646	1	0	3.860000e+01
407.565735	1.346199	city	2	1	1.421724	1.421724	0	1	0	0	CorrectCommission	0.337016	0.517053	1	0	3.865000e+01
408.951904	1.426181	city	10	1	1.391963	1.391963	0	1	0	0	CorrectCommission	0.240822	0.514536	1	0	3.870000e+01
410.311554	1.293084	mountain	4	0	0.000000	1.266340	1	0	0	0	CorrectOmission	0.165227	0.520478	1	0	3.875000e+01
411.617798	1.319402	city	5	1	1.170106	1.170106	0	1	0	0	CorrectCommission	0.476282	0.534566	1	0	3.880000e+01
412.950623	1.346232	city	7	1	1.228514	1.228514	0	1	0	0	CorrectCommission	0.287492	0.555876	1	0	3.885000e+01
414.283600	1.319740	city	4	1	1.511291	1.511291	0	1	0	0	CorrectCommission	0.626522	0.582903	1	0	3.890000e+01
415.609833	1.332742	city	2	1	1.071370	1.071370	0	1	0	0	CorrectCommission	0.795422	0.613699	1	0	3.895000e+01
416.956024	1.359637	city	4	1	1.236339	1.236339	0	1	0	0	CorrectCommission	0.262197	0.646110	1	0	39
418.322235	1.372788	city	7	1	1.144248	1.144248	0	1	0	0	CorrectCommission	0.559862	0.677949	1	0	3.905000e+01
419.708496	1.399708	city	4	1	1.678928	1.678928	0	1	0	0	CorrectCommission	1.168369	0.707229	1	0	3.910000e+01
421.101349	1.386035	city	10	1	1.590844	1.590844	0	1	0	0	CorrectCommission	0.883657	0.732385	1	0	3.915000e+01
422.494232	1.399720	city	1	1	1.867425	1.867425	0	1	0	0	CorrectCommission	1.777643	0.752413	1	0	3.920000e+01
423.847137	1.306069	city	10	1	1.318567	1.318567	0	1	0	0	CorrectCommission	0.003586	0.766910	1	0	3.925000e+01
425.173370	1.346388	city	4	1	1.750539	1.750539	0	1	0	0	CorrectCommission	1.399837	0.776186	1	0	3.930000e+01
426.532990	1.372863	city	3	1	1.222036	1.222036	0	1	0	0	CorrectCommission	0.308431	0.781000	1	0	3.935000e+01
427.899170	1.359481	city	7	1	1.631329	1.631329	0	1	0	0	CorrectCommission	1.014517	0.782578	1	0	3.940000e+01
429.265381	1.372980	city	1	1	1.654309	1.654309	0	1	0	0	CorrectCommission	1.088795	0.782294	1	0	3.945000e+01
430.624969	1.346192	city	9	1	1.195855	1.195855	0	1	0	0	CorrectCommission	0.393055	0.781510	1	0	3.950000e+01
431.951172	1.306236	mountain	2	0	0.000000	1.072290	1	0	0	0	CorrectOmission	0.792451	0.781419	1	0	3.955000e+01
433.264099	1.319588	city	6	1	1.221465	1.221465	0	1	0	0	CorrectCommission	0.310276	0.782812	1	0	3.960000e+01
434.590271	1.332738	city	10	1	1.581231	1.581231	0	1	0	0	CorrectCommission	0.852585	0.786060	1	0	3.965000e+01
435.923096	1.332920	city	1	1	1.644238	1.644238	0	1	0	0	CorrectCommission	1.056243	0.791039	1	0	3.970000e+01
437.255981	1.332862	city	3	1	1.278786	1.278786	0	1	0	0	CorrectCommission	0.124997	0.797237	1	0	3.975000e+01
438.582214	1.319597	city	7	1	0.994620	0.994620	0	1	0	0	CorrectCommission	1.043501	0.803841	0	0	3.980000e+01
439.901855	1.319690	city	8	1	1.741671	1.741671	0	1	0	0	CorrectCommission	1.371171	0.809853	0	0	3.985000e+01
441.228058	1.332727	city	3	1	1.349725	1.349725	0	1	0	0	CorrectCommission	0.104295	0.814268	0	0	3.990000e+01
442.580872	1.372918	city	9	1	1.816611	1.816611	0	1	0	0	CorrectCommission	1.613398	0.816248	0	0	3.995000e+01
445.933105	5.331550	break	0	0	0.000000	1.537651	0	0	0	0	ThoughtProbe	0.711724	0.815145	0	40	40
449.252075	1.306360	city	9	1	1.050971	1.050971	0	1	0	0	CorrectCommission	0.861357	0.810651	0	0	4.004348e+01
450.578400	1.346262	city	10	1	0.894698	0.894698	0	1	0	0	CorrectCommission	1.366476	0.802725	0	0	4.008696e+01
451.897919	1.292777	city	3	1	1.110033	1.110033	0	1	0	0	CorrectCommission	0.670455	0.791575	1	0	4.013043e+01
453.230713	1.372840	city	9	1	1.268160	1.268160	0	1	0	0	CorrectCommission	0.159345	0.777593	1	0	4.017391e+01
454.590363	1.346432	city	6	1	1.554478	1.554478	0	1	0	0	CorrectCommission	0.766113	0.761306	1	0	4.021739e+01
455.929993	1.332848	city	10	1	1.079007	1.079007	0	1	0	0	CorrectCommission	0.770739	0.743278	1	0	4.026087e+01
457.236206	1.279594	city	3	1	1.647173	1.647173	0	1	0	0	CorrectCommission	1.065729	0.724174	1	0	4.030435e+01
458.529022	1.306055	mountain	2	0	0.000000	1.496419	1	0	0	0	CorrectOmission	0.578451	0.704686	1	0	4.034783e+01
459.848602	1.333060	city	9	1	1.107584	1.107584	0	1	0	0	CorrectCommission	0.678369	0.685645	1	0	4.039130e+01
461.194824	1.359424	city	2	1	0.961509	0.961509	0	1	0	0	CorrectCommission	1.150524	0.667911	1	0	4.043478e+01
462.527710	1.306310	city	5	1	1.527727	1.527727	0	1	0	0	CorrectCommission	0.679647	0.652425	1	0	4.047826e+01
463.913971	1.466254	mountain	7	1	1.329788	1.329788	0	0	1	0	CommissionError	0.039855	0.640147	1	0	4.052174e+01
465.286896	1.279565	city	5	1	1.380014	1.380014	0	1	0	0	CorrectCommission	0.202197	0.631993	1	0	4.056522e+01
466.586456	1.319566	city	3	1	0.924992	0.924992	0	1	0	0	CorrectCommission	1.268557	0.628692	1	0	4.060870e+01
467.932709	1.372912	city	5	1	1.386119	1.386119	0	1	0	0	CorrectCommission	0.221930	0.630664	1	0	4.065217e+01
469.285553	1.332825	city	7	1	1.102921	1.102921	0	1	0	0	CorrectCommission	0.693441	0.638012	1	0	4.069565e+01
470.618378	1.332782	city	1	1	1.381094	1.381094	0	1	0	0	CorrectCommission	0.205689	0.650421	1	0	4.073913e+01
471.944550	1.319582	mountain	10	0	0.000000	1.329552	1	0	0	0	CorrectOmission	0.039091	0.667210	1	0	4.078261e+01
473.264160	1.319610	city	4	1	1.097614	1.097614	0	1	0	0	CorrectCommission	0.710596	0.687329	1	0	4.082609e+01
474.577057	1.306194	city	2	1	0.834599	0.834599	0	1	0	0	CorrectCommission	1.560730	0.709505	1	0	4.086957e+01
475.903320	1.346360	city	3	1	1.568520	1.568520	0	1	0	0	CorrectCommission	0.811500	0.732303	1	0	4.091304e+01
477.269623	1.386239	city	5	1	0.992591	0.992591	0	1	0	0	CorrectCommission	1.050060	0.754339	1	0	4.095652e+01
478.669067	1.412676	city	6	1	1.221638	1.221638	0	1	0	0	CorrectCommission	0.309715	0.774332	1	0	41
480.068542	1.386224	city	7	1	1.154078	1.154078	0	1	0	0	CorrectCommission	0.528087	0.791213	1	0	4.104348e+01
481.414856	1.306413	city	10	1	1.592232	1.592232	0	1	0	0	CorrectCommission	0.888144	0.804209	0	0	4.108696e+01
482.727753	1.319411	city	2	1	1.616964	1.616964	0	1	0	0	CorrectCommission	0.968084	0.812937	0	0	4.113043e+01
484.060577	1.346236	city	1	1	1.594408	1.594408	0	1	0	0	CorrectCommission	0.895178	0.817474	0	0	4.117391e+01
485.433472	1.399568	city	7	1	1.980010	1.980010	0	1	0	0	CorrectCommission	2.141548	0.818432	0	0	4.121739e+01
486.799683	1.332822	city	9	1	1.353309	1.353309	0	1	0	0	CorrectCommission	0.115882	0.816972	0	0	4.126087e+01
488.139282	1.346384	city	10	1	1.564911	1.564911	0	1	0	0	CorrectCommission	0.799836	0.814951	0	0	4.130435e+01
489.458954	1.292931	city	6	1	1.316939	1.316939	0	1	0	0	CorrectCommission	0.001676	0.814840	0	0	4.134783e+01
490.791779	1.372713	city	10	1	1.844275	1.844275	0	1	0	0	CorrectCommission	1.702817	0.819867	0	0	4.139130e+01
492.177948	1.399684	city	4	1	1.674421	1.674421	0	1	0	0	CorrectCommission	1.153802	0.833970	0	0	4.143478e+01
493.537567	1.319527	city	8	1	1.351798	1.351798	0	1	0	0	CorrectCommission	0.110996	0.861874	0	0	4.147826e+01
494.877136	1.359615	mountain	10	0	0.000000	1.292492	1	0	0	0	CorrectOmission	0.080697	0.909022	0	0	4.152174e+01
496.217285	1.320704	city	7	1	1.203901	1.203901	0	1	0	0	CorrectCommission	0.367046	0.981360	0	0	4.156522e+01
497.603455	1.451585	city	2	1	0.793424	0.793424	0	1	0	0	CorrectCommission	1.693820	1.085168	0	0	4.160870e+01
499.015747	1.373008	city	6	1	1.489825	1.489825	0	1	0	0	CorrectCommission	0.557138	1.226591	0	0	4.165217e+01
500.375305	1.346096	city	8	1	0.993387	0.993387	0	1	0	0	CorrectCommission	1.047484	1.411165	0	0	4.169565e+01
501.734772	1.372839	city	4	1	1.478353	1.478353	0	1	0	0	CorrectCommission	0.520056	1.643046	0	0	4.173913e+01
503.101044	1.359712	city	8	1	1.645675	1.645675	0	1	0	0	CorrectCommission	1.060888	1.924319	0	0	4.178261e+01
504.480621	1.399463	city	3	1	1.847828	1.847828	0	1	0	0	CorrectCommission	1.714300	2.254304	0	0	4.182609e+01
505.840118	1.319544	city	10	1	1.536386	1.536386	0	1	0	0	CorrectCommission	0.707635	2.629073	0	0	4.186957e+01
507.226288	1.452786	city	8	1	1.147355	1.147355	0	1	0	0	CorrectCommission	0.549820	3.041336	0	0	4.191304e+01
508.632446	1.359552	city	3	1	1.840979	1.840979	0	1	0	0	CorrectCommission	1.692161	3.480643	0	0	4.195652e+01
512.151367	5.678266	break	0	0	0.000000	2.534602	0	0	0	0	ThoughtProbe	3.934142	3.934142	0	42	42
