onset	duration	trial_type	image_type	Press	ReactionTime	ReactionTime_Interpolated	CorrectOmission	CorrectCommission	CommissionError	OmissionError	response_type	nonsmoothVarianceTimeCourse	VarianceTimeCourse	In_the_Zone	ThoughtProbe	ThoughtProbe_Interpolated
0.653120	1.279565	mountain	1	0	0.000000	1.391012	1	0	0	0	CorrectOmission	0.423221	0.423221	1	0	56
1.932601	1.279398	city	4	1	1.138903	1.138903	0	1	0	0	CorrectCommission	0.363310	0.525246	1	0	56
3.218793	1.292987	city	5	1	0.886794	0.886794	0	1	0	0	CorrectCommission	1.149841	0.622432	1	0	56
4.511779	1.292984	city	4	1	0.793269	0.793269	0	1	0	0	CorrectCommission	1.441621	0.710341	1	0	56
5.818061	1.319582	city	7	1	1.658778	1.658778	0	1	0	0	CorrectCommission	1.258601	0.785288	1	0	56
7.117638	1.279572	mountain	7	0	0.000000	1.436931	1	0	0	0	CorrectOmission	0.566482	0.844650	0	0	56
8.397213	1.279578	city	9	1	0.860392	0.860392	0	1	0	0	CorrectCommission	1.232210	0.887051	0	0	56
9.703462	1.332919	city	1	1	0.661822	0.661822	0	1	0	0	CorrectCommission	1.851710	0.912384	0	0	56
11.009712	1.279583	city	9	1	0.832120	0.832120	0	1	0	0	CorrectCommission	1.320415	0.921783	0	0	56
12.289280	1.279552	city	2	1	1.663256	1.663256	0	1	0	0	CorrectCommission	1.272572	0.917499	0	0	56
13.568764	1.279415	city	5	1	1.207337	1.207337	0	1	0	0	CorrectCommission	0.149810	0.902630	0	0	56
14.848267	1.279591	city	10	1	0.810530	0.810530	0	1	0	0	CorrectCommission	1.387771	0.880878	0	0	56
16.127914	1.279704	city	1	1	1.497048	1.497048	0	1	0	0	CorrectCommission	0.754034	0.856126	0	0	56
17.407501	1.279470	city	4	1	1.178464	1.178464	0	1	0	0	CorrectCommission	0.239888	0.832221	0	0	56
18.687111	1.279747	city	3	1	1.614648	1.614648	0	1	0	0	CorrectCommission	1.120924	0.812611	0	0	56
19.966675	1.279382	city	6	1	1.456639	1.456639	0	1	0	0	CorrectCommission	0.627967	0.800073	0	0	56
21.252903	1.293075	city	7	1	1.385107	1.385107	0	1	0	0	CorrectCommission	0.404799	0.796564	0	0	56
22.539242	1.279601	city	9	1	0.996035	0.996035	0	1	0	0	CorrectCommission	0.809031	0.803020	0	0	56
23.818821	1.279558	city	7	1	1.235656	1.235656	0	1	0	0	CorrectCommission	0.061460	0.819352	0	0	56
25.098307	1.279414	mountain	10	0	0.000000	1.096949	1	0	0	0	CorrectOmission	0.494198	0.844492	0	0	56
26.384550	1.293075	city	1	1	0.942149	0.942149	0	1	0	0	CorrectCommission	0.977145	0.876506	0	0	56
27.670843	1.279510	city	4	1	1.133489	1.133489	0	1	0	0	CorrectCommission	0.380199	0.912789	0	0	56
28.950432	1.279667	city	8	1	0.750972	0.750972	0	1	0	0	CorrectCommission	1.573580	0.950430	0	0	56
30.243372	1.306212	city	3	1	0.856137	0.856137	0	1	0	0	CorrectCommission	1.245485	0.986422	0	0	56
31.536253	1.279551	city	9	1	0.974713	0.974713	0	1	0	0	CorrectCommission	0.875551	1.018026	0	0	56
32.815819	1.279582	city	1	1	0.647644	0.647644	0	1	0	0	CorrectCommission	1.895943	1.042991	0	0	56
34.095402	1.279584	city	3	1	0.659041	0.659041	0	1	0	0	CorrectCommission	1.860386	1.059679	0	0	56
35.381660	1.292935	city	9	1	1.155724	1.155724	0	1	0	0	CorrectCommission	0.310830	1.067184	0	0	56
36.667835	1.279414	city	1	1	0.859099	0.859099	0	1	0	0	CorrectCommission	1.236245	1.065335	0	0	56
37.954102	1.293119	city	8	1	0.993448	0.993448	0	1	0	0	CorrectCommission	0.817101	1.054524	0	0	56
39.247101	1.292873	city	6	1	0.881761	0.881761	0	1	0	0	CorrectCommission	1.165542	1.035694	0	0	56
40.546581	1.306089	city	10	1	1.741581	1.741581	0	1	0	0	CorrectCommission	1.516931	1.010200	0	0	56
41.859474	1.319697	city	6	1	1.661506	1.661506	0	1	0	0	CorrectCommission	1.267113	0.979706	0	0	56
43.172428	1.306216	city	7	1	1.473526	1.473526	0	1	0	0	CorrectCommission	0.680650	0.946065	0	0	56
44.478687	1.306298	city	8	1	1.021303	1.021303	0	1	0	0	CorrectCommission	0.730200	0.911234	0	0	56
45.778191	1.292712	city	6	1	0.781515	0.781515	0	1	0	0	CorrectCommission	1.478293	0.877152	0	0	56
47.064342	1.279589	mountain	8	0	0.000000	1.117301	1	0	0	0	CorrectOmission	0.430704	0.845555	0	0	56
48.350590	1.292904	city	9	1	1.474436	1.474436	0	1	0	0	CorrectCommission	0.683489	0.817944	0	0	56
49.683475	1.372869	city	10	1	1.298696	1.298696	0	1	0	0	CorrectCommission	0.135213	0.795374	0	0	56
51.009777	1.279734	city	1	1	0.928935	0.928935	0	1	0	0	CorrectCommission	1.018370	0.778387	1	0	56
52.302723	1.306162	city	9	1	1.274664	1.274664	0	1	0	0	CorrectCommission	0.060238	0.766983	1	0	56
53.595646	1.279680	city	10	1	0.821720	0.821720	0	1	0	0	CorrectCommission	1.352858	0.760654	1	0	56
54.875195	1.279417	city	7	1	1.454518	1.454518	0	1	0	0	CorrectCommission	0.621348	0.758386	1	0	56
56.168034	1.306262	city	5	1	1.044175	1.044175	0	1	0	0	CorrectCommission	0.658843	0.758901	1	0	56
57.460945	1.279557	city	4	1	1.514694	1.514694	0	1	0	0	CorrectCommission	0.809087	0.760750	1	0	56
60.366726	4.532011	break	0	0	0.000000	1.485655	0	0	0	0	ThoughtProbe	0.718492	0.762534	1	56	56
63.279091	1.292716	city	9	1	1.166889	1.166889	0	1	0	0	CorrectCommission	0.275998	0.763091	1	0	5.597500e+01
64.565239	1.279585	city	1	1	0.768225	0.768225	0	1	0	0	CorrectCommission	1.519755	0.761663	1	0	5.595000e+01
65.851494	1.292924	city	8	1	1.647268	1.647268	0	1	0	0	CorrectCommission	1.222693	0.757945	1	0	5.592500e+01
67.151161	1.306402	city	4	1	1.384258	1.384258	0	1	0	0	CorrectCommission	0.402152	0.752219	1	0	5.590000e+01
68.444168	1.279613	city	10	1	1.727317	1.727317	0	1	0	0	CorrectCommission	1.472431	0.745217	1	0	5.587500e+01
69.723701	1.279456	city	3	1	1.460541	1.460541	0	1	0	0	CorrectCommission	0.640140	0.737954	1	0	5.585000e+01
71.016579	1.306306	city	9	1	1.169316	1.169316	0	1	0	0	CorrectCommission	0.268426	0.731596	1	0	5.582500e+01
72.316132	1.292799	mountain	3	0	0.000000	1.312140	1	0	0	0	CorrectOmission	0.177157	0.727156	1	0	5.580000e+01
73.628990	1.332906	city	10	1	1.502426	1.502426	0	1	0	0	CorrectCommission	0.770812	0.725340	1	0	5.577500e+01
74.961884	1.332886	city	8	1	1.353586	1.353586	0	1	0	0	CorrectCommission	0.306462	0.726375	1	0	5.575000e+01
76.274849	1.293042	city	1	1	0.915999	0.915999	0	1	0	0	CorrectCommission	1.058728	0.730039	1	0	5.572500e+01
77.567818	1.292896	mountain	9	1	0.983211	0.983211	0	0	1	0	CommissionError	0.849040	0.735627	1	0	5.570000e+01
78.873955	1.319386	city	9	1	1.273740	1.273740	0	1	0	0	CorrectCommission	0.057357	0.742187	1	0	5.567500e+01
80.180183	1.293071	city	1	1	1.676545	1.676545	0	1	0	0	CorrectCommission	1.314030	0.748693	1	0	5.565000e+01
81.466507	1.279578	city	5	1	1.605401	1.605401	0	1	0	0	CorrectCommission	1.092074	0.754215	1	0	5.562500e+01
82.752724	1.292844	city	3	1	1.032862	1.032862	0	1	0	0	CorrectCommission	0.694137	0.758111	1	0	5.560000e+01
84.078964	1.359639	city	4	1	1.505940	1.505940	0	1	0	0	CorrectCommission	0.781776	0.760154	1	0	5.557500e+01
85.425232	1.332894	city	2	1	0.876511	0.876511	0	1	0	0	CorrectCommission	1.181922	0.760522	1	0	5.555000e+01
86.751450	1.319550	city	4	1	1.661030	1.661030	0	1	0	0	CorrectCommission	1.265628	0.759748	1	0	5.552500e+01
88.084343	1.346231	city	5	1	1.236173	1.236173	0	1	0	0	CorrectCommission	0.059847	0.758600	1	0	5.550000e+01
89.397240	1.279566	city	10	1	1.458832	1.458832	0	1	0	0	CorrectCommission	0.634809	0.757914	1	0	5.547500e+01
90.676819	1.279598	city	3	1	1.248040	1.248040	0	1	0	0	CorrectCommission	0.022822	0.758382	1	0	5.545000e+01
91.969734	1.306230	mountain	8	1	0.988417	0.988417	0	0	1	0	CommissionError	0.832797	0.760509	1	0	5.542500e+01
93.262566	1.279435	city	1	1	1.512518	1.512518	0	1	0	0	CorrectCommission	0.802299	0.764471	1	0	5.540000e+01
94.548752	1.292928	city	9	1	0.978964	0.978964	0	1	0	0	CorrectCommission	0.862289	0.770170	1	0	5.537500e+01
95.881668	1.372917	city	8	1	1.774339	1.774339	0	1	0	0	CorrectCommission	1.619129	0.777322	1	0	5.535000e+01
97.221291	1.306321	city	7	1	1.368634	1.368634	0	1	0	0	CorrectCommission	0.353409	0.785464	1	0	5.532500e+01
98.520905	1.292901	city	6	1	1.617976	1.617976	0	1	0	0	CorrectCommission	1.131306	0.794132	0	0	5.530000e+01
99.833702	1.332707	city	2	1	1.230492	1.230492	0	1	0	0	CorrectCommission	0.077568	0.802846	0	0	5.527500e+01
101.173187	1.346254	city	1	1	1.580993	1.580993	0	1	0	0	CorrectCommission	1.015926	0.811221	0	0	5.525000e+01
102.492851	1.293082	city	3	1	1.409450	1.409450	0	1	0	0	CorrectCommission	0.480745	0.818932	0	0	5.522500e+01
103.779175	1.279566	city	6	1	1.070972	1.070972	0	1	0	0	CorrectCommission	0.575242	0.825821	0	0	5.520000e+01
105.078758	1.319596	city	9	1	0.794538	0.794538	0	1	0	0	CorrectCommission	1.437661	0.831843	0	0	5.517500e+01
106.378273	1.279433	city	10	1	0.660738	0.660738	0	1	0	0	CorrectCommission	1.855092	0.837044	0	0	5.515000e+01
107.664505	1.293027	city	5	1	1.463008	1.463008	0	1	0	0	CorrectCommission	0.647838	0.841561	0	0	5.512500e+01
108.950806	1.279582	city	6	1	1.252475	1.252475	0	1	0	0	CorrectCommission	0.008986	0.845522	0	0	5.510000e+01
110.243713	1.306233	city	7	1	1.502477	1.502477	0	1	0	0	CorrectCommission	0.770973	0.848919	0	0	5.507500e+01
111.543251	1.292843	city	4	1	0.998448	0.998448	0	1	0	0	CorrectCommission	0.801500	0.851529	0	0	5.505000e+01
112.836227	1.293111	city	6	1	1.633653	1.633653	0	1	0	0	CorrectCommission	1.180216	0.852871	0	0	5.502500e+01
115.941826	4.918085	break	0	0	0.000000	1.451026	0	0	0	0	ThoughtProbe	0.610456	0.852217	0	55	55
119.047340	1.292936	city	9	1	1.027880	1.027880	0	1	0	0	CorrectCommission	0.709681	0.848693	0	0	5.505882e+01
120.347000	1.306382	city	1	1	0.941524	0.941524	0	1	0	0	CorrectCommission	0.979095	0.841436	0	0	5.511765e+01
121.666588	1.332809	city	2	1	1.661667	1.661667	0	1	0	0	CorrectCommission	1.267614	0.829779	0	0	5.517647e+01
122.986069	1.306146	city	1	1	1.130409	1.130409	0	1	0	0	CorrectCommission	0.389810	0.813470	0	0	5.523529e+01
124.278938	1.279600	city	10	1	1.719247	1.719247	0	1	0	0	CorrectCommission	1.447253	0.792852	1	0	5.529412e+01
125.565269	1.293053	city	4	1	1.625652	1.625652	0	1	0	0	CorrectCommission	1.155255	0.768864	1	0	5.535294e+01
126.851585	1.279585	mountain	9	0	0.000000	1.623745	1	0	0	0	CorrectOmission	1.149304	0.743073	1	0	5.541176e+01
128.137802	1.292840	city	6	1	1.564980	1.564980	0	1	0	0	CorrectCommission	0.965970	0.717456	1	0	5.547059e+01
129.423965	1.279485	city	4	1	1.300814	1.300814	0	1	0	0	CorrectCommission	0.141823	0.694164	1	0	5.552941e+01
130.716904	1.306392	mountain	6	0	0.000000	1.209070	1	0	0	0	CorrectOmission	0.144402	0.675148	1	0	5.558824e+01
132.016556	1.292920	city	6	1	1.245525	1.245525	0	1	0	0	CorrectCommission	0.030670	0.661848	1	0	5.564706e+01
133.329376	1.332726	city	9	1	1.365957	1.365957	0	1	0	0	CorrectCommission	0.345055	0.654960	1	0	5.570588e+01
134.642242	1.293004	city	5	1	1.241298	1.241298	0	1	0	0	CorrectCommission	0.043855	0.654319	1	0	5.576471e+01
135.961884	1.346284	city	1	1	0.993612	0.993612	0	1	0	0	CorrectCommission	0.816590	0.658971	1	0	5.582353e+01
137.281479	1.292903	city	2	1	1.646565	1.646565	0	1	0	0	CorrectCommission	1.220499	0.667321	1	0	5.588235e+01
138.587708	1.319535	city	9	1	1.047696	1.047696	0	1	0	0	CorrectCommission	0.647859	0.677451	1	0	5.594118e+01
139.900543	1.306155	city	6	1	1.700281	1.700281	0	1	0	0	CorrectCommission	1.388082	0.687472	1	0	56
141.206818	1.306375	city	3	1	1.071175	1.071175	0	1	0	0	CorrectCommission	0.574607	0.695740	1	0	5.605882e+01
142.519699	1.319391	city	2	1	1.492209	1.492209	0	1	0	0	CorrectCommission	0.738939	0.701101	1	0	5.611765e+01
143.832581	1.306385	city	9	1	1.020692	1.020692	0	1	0	0	CorrectCommission	0.732106	0.702942	1	0	5.617647e+01
145.125565	1.279586	city	8	1	1.088141	1.088141	0	1	0	0	CorrectCommission	0.521677	0.701189	1	0	5.623529e+01
146.411819	1.292911	city	1	1	0.930337	0.930337	0	1	0	0	CorrectCommission	1.013997	0.696245	1	0	5.629412e+01
147.711319	1.306089	city	2	1	1.078956	1.078956	0	1	0	0	CorrectCommission	0.550331	0.688788	1	0	5.635294e+01
149.017563	1.306408	city	8	1	1.594886	1.594886	0	1	0	0	CorrectCommission	1.059270	0.679700	1	0	5.641176e+01
150.323792	1.306046	city	5	1	1.381123	1.381123	0	1	0	0	CorrectCommission	0.392372	0.669821	1	0	5.647059e+01
151.630020	1.306414	city	4	1	1.273220	1.273220	0	1	0	0	CorrectCommission	0.055733	0.659969	1	0	5.652941e+01
152.943008	1.319552	city	6	1	0.989115	0.989115	0	1	0	0	CorrectCommission	0.830618	0.650768	1	0	5.658824e+01
154.249237	1.292916	city	9	1	1.593546	1.593546	0	1	0	0	CorrectCommission	1.055090	0.642687	1	0	5.664706e+01
155.555435	1.319495	city	5	1	1.413730	1.413730	0	1	0	0	CorrectCommission	0.494098	0.636050	1	0	5.670588e+01
156.868256	1.306135	city	7	1	1.235628	1.235628	0	1	0	0	CorrectCommission	0.061547	0.631108	1	0	5.676471e+01
158.167862	1.293074	city	2	1	1.636299	1.636299	0	1	0	0	CorrectCommission	1.188469	0.628070	1	0	5.682353e+01
159.474213	1.319622	city	5	1	1.566433	1.566433	0	1	0	0	CorrectCommission	0.970503	0.627057	1	0	5.688235e+01
160.793701	1.319356	city	2	1	1.427872	1.427872	0	1	0	0	CorrectCommission	0.538219	0.628169	1	0	5.694118e+01
164.239120	5.571500	break	0	0	0.000000	1.328881	0	0	0	0	ThoughtProbe	0.229387	0.631419	1	57	57
167.664734	1.279705	city	10	1	1.322767	1.322767	0	1	0	0	CorrectCommission	0.210310	0.636684	1	0	5.695000e+01
168.970963	1.332758	mountain	7	0	0.000000	1.462834	1	0	0	0	CorrectOmission	0.647292	0.643684	1	0	5.690000e+01
170.277222	1.279759	city	4	1	1.444940	1.444940	0	1	0	0	CorrectCommission	0.591467	0.651940	1	0	5.685000e+01
171.556900	1.279596	city	1	1	0.964942	0.964942	0	1	0	0	CorrectCommission	0.906033	0.660868	1	0	5.680000e+01
172.849823	1.306250	city	6	1	0.968282	0.968282	0	1	0	0	CorrectCommission	0.895615	0.669809	1	0	5.675000e+01
174.169373	1.332844	city	3	1	1.107853	1.107853	0	1	0	0	CorrectCommission	0.460179	0.678180	1	0	5.670000e+01
175.495560	1.319537	city	1	1	1.619735	1.619735	0	1	0	0	CorrectCommission	1.136793	0.685534	1	0	5.665000e+01
176.855118	1.399593	city	7	1	1.266118	1.266118	0	1	0	0	CorrectCommission	0.033577	0.691605	1	0	5.660000e+01
178.227982	1.346128	city	4	1	1.742104	1.742104	0	1	0	0	CorrectCommission	1.518562	0.696442	1	0	5.655000e+01
179.540924	1.279747	city	10	0	0.000000	1.239176	0	0	0	1	OmissionError	0.050478	0.700299	1	0	5.650000e+01
180.827133	1.292689	city	1	1	0.764901	0.764901	0	1	0	0	CorrectCommission	1.530125	0.703712	1	0	5.645000e+01
182.119949	1.292927	city	6	1	1.326847	1.326847	0	1	0	0	CorrectCommission	0.223040	0.707266	1	0	5.640000e+01
183.432922	1.333028	city	1	1	1.580456	1.580456	0	1	0	0	CorrectCommission	1.014250	0.711628	1	0	5.635000e+01
184.739227	1.279572	mountain	4	0	0.000000	1.256522	1	0	0	0	CorrectOmission	0.003639	0.717305	1	0	5.630000e+01
186.032074	1.306126	city	10	1	1.045102	1.045102	0	1	0	0	CorrectCommission	0.655951	0.724583	1	0	5.625000e+01
187.331650	1.293023	city	2	1	1.636252	1.636252	0	1	0	0	CorrectCommission	1.188323	0.733418	1	0	5.620000e+01
188.637924	1.319547	city	9	1	1.167462	1.167462	0	1	0	0	CorrectCommission	0.274210	0.743410	1	0	5.615000e+01
189.937454	1.279505	city	5	1	1.451953	1.451953	0	1	0	0	CorrectCommission	0.613345	0.753899	1	0	5.610000e+01
191.256943	1.359457	city	3	1	0.934589	0.934589	0	1	0	0	CorrectCommission	1.000731	0.763961	1	0	5.605000e+01
192.596512	1.319685	city	8	1	1.467421	1.467421	0	1	0	0	CorrectCommission	0.661604	0.772572	1	0	56
193.969482	1.426259	city	1	1	1.822647	1.822647	0	1	0	0	CorrectCommission	1.769840	0.778782	1	0	5.595000e+01
195.335724	1.306235	city	2	1	1.383432	1.383432	0	1	0	0	CorrectCommission	0.399575	0.781835	1	0	5.590000e+01
196.641922	1.306160	mountain	2	0	0.000000	1.204654	1	0	0	0	CorrectOmission	0.158177	0.781365	1	0	5.585000e+01
197.948120	1.306227	city	1	1	1.040221	1.040221	0	1	0	0	CorrectCommission	0.671178	0.777417	1	0	5.580000e+01
199.241058	1.279640	city	6	1	0.644040	0.644040	0	1	0	0	CorrectCommission	1.907186	0.770505	1	0	5.575000e+01
200.540680	1.319605	city	7	1	1.698411	1.698411	0	1	0	0	CorrectCommission	1.382249	0.761553	1	0	5.570000e+01
201.840179	1.279418	city	9	1	1.313626	1.313626	0	1	0	0	CorrectCommission	0.181794	0.751848	1	0	5.565000e+01
203.133011	1.306223	city	6	1	1.128129	1.128129	0	1	0	0	CorrectCommission	0.396921	0.742848	1	0	5.560000e+01
204.445908	1.319579	city	7	1	1.495666	1.495666	0	1	0	0	CorrectCommission	0.749722	0.735884	1	0	5.555000e+01
205.772217	1.333030	city	10	1	1.074290	1.074290	0	1	0	0	CorrectCommission	0.564890	0.732029	1	0	5.550000e+01
207.078476	1.279501	city	7	1	1.308161	1.308161	0	1	0	0	CorrectCommission	0.164742	0.731853	1	0	5.545000e+01
208.371399	1.306337	city	9	1	0.965734	0.965734	0	1	0	0	CorrectCommission	0.903563	0.735373	1	0	5.540000e+01
209.670975	1.292816	city	5	1	1.036886	1.036886	0	1	0	0	CorrectCommission	0.681582	0.741945	1	0	5.535000e+01
210.963791	1.292833	city	1	1	1.195021	1.195021	0	1	0	0	CorrectCommission	0.188232	0.750462	1	0	5.530000e+01
212.256744	1.293055	city	8	1	0.834924	0.834924	0	1	0	0	CorrectCommission	1.311664	0.759489	1	0	5.525000e+01
213.543060	1.279581	city	2	1	1.370657	1.370657	0	1	0	0	CorrectCommission	0.359720	0.767514	1	0	5.520000e+01
214.855972	1.346243	city	6	1	1.670579	1.670579	0	1	0	0	CorrectCommission	1.295419	0.773248	1	0	5.515000e+01
216.195496	1.332807	city	5	1	1.792043	1.792043	0	1	0	0	CorrectCommission	1.674361	0.775782	1	0	5.510000e+01
217.515015	1.306232	city	8	1	1.471128	1.471128	0	1	0	0	CorrectCommission	0.673169	0.774791	1	0	5.505000e+01
221.047226	5.758180	break	0	0	0.000000	1.135130	0	0	0	0	ThoughtProbe	0.375082	0.770564	1	55	55
224.566116	1.279601	city	10	1	0.921470	0.921470	0	1	0	0	CorrectCommission	1.041657	0.763919	1	0	5.465217e+01
225.845688	1.279566	city	9	1	0.967574	0.967574	0	1	0	0	CorrectCommission	0.897824	0.756042	1	0	5.430435e+01
227.125229	1.279498	city	3	1	1.070787	1.070787	0	1	0	0	CorrectCommission	0.575817	0.748267	1	0	5.395652e+01
228.404785	1.279623	mountain	6	1	1.015160	1.015160	0	0	1	0	CommissionError	0.749363	0.741867	1	0	5.360870e+01
229.684402	1.279611	city	7	1	1.249851	1.249851	0	1	0	0	CorrectCommission	0.017173	0.737854	1	0	5.326087e+01
230.964005	1.279597	city	8	1	1.053091	1.053091	0	1	0	0	CorrectCommission	0.631026	0.736839	1	0	5.291304e+01
232.243500	1.279390	city	10	1	0.964082	0.964082	0	1	0	0	CorrectCommission	0.908718	0.738975	1	0	5.256522e+01
233.529739	1.293070	city	2	1	1.207327	1.207327	0	1	0	0	CorrectCommission	0.149840	0.744037	1	0	5.221739e+01
234.816055	1.279585	mountain	1	1	0.910810	0.910810	0	0	1	0	CommissionError	1.074917	0.751597	1	0	5.186957e+01
236.095566	1.279414	city	9	1	0.910914	0.910914	0	1	0	0	CorrectCommission	1.074591	0.761083	1	0	5.152174e+01
237.375061	1.279586	city	3	1	1.710676	1.710676	0	1	0	0	CorrectCommission	1.420513	0.771973	1	0	5.117391e+01
238.654724	1.279753	city	6	1	1.455805	1.455805	0	1	0	0	CorrectCommission	0.625364	0.783885	1	0	5.082609e+01
239.941055	1.292887	city	5	1	1.416907	1.416907	0	1	0	0	CorrectCommission	0.504009	0.796612	0	0	5.047826e+01
241.227280	1.279584	city	6	1	1.043691	1.043691	0	1	0	0	CorrectCommission	0.660353	0.810034	0	0	5.013043e+01
242.506866	1.279574	mountain	7	0	0.000000	1.025855	1	0	0	0	CorrectOmission	0.715997	0.824053	0	0	4.978261e+01
243.786362	1.279434	city	8	1	1.076584	1.076584	0	1	0	0	CorrectCommission	0.557732	0.838505	0	0	4.943478e+01
245.065872	1.279582	city	1	1	0.909063	0.909063	0	1	0	0	CorrectCommission	1.080367	0.853033	0	0	4.908696e+01
246.345459	1.279590	city	6	1	1.553387	1.553387	0	1	0	0	CorrectCommission	0.929800	0.867102	0	0	4.873913e+01
247.625122	1.279725	city	9	1	1.127639	1.127639	0	1	0	0	CorrectCommission	0.398451	0.879987	0	0	4.839130e+01
248.904755	1.279558	city	7	1	0.857521	0.857521	0	1	0	0	CorrectCommission	1.241167	0.890862	0	0	4.804348e+01
250.184341	1.279605	city	8	1	0.802337	0.802337	0	1	0	0	CorrectCommission	1.413330	0.898869	0	0	4.769565e+01
251.463913	1.279532	city	6	1	0.963595	0.963595	0	1	0	0	CorrectCommission	0.910238	0.903289	0	0	4.734783e+01
252.750153	1.292944	city	10	1	1.084088	1.084088	0	1	0	0	CorrectCommission	0.534320	0.903591	0	0	47
254.036407	1.279570	city	6	1	0.750755	0.750755	0	1	0	0	CorrectCommission	1.574257	0.899502	0	0	4.665217e+01
255.315994	1.279598	city	7	1	1.459347	1.459347	0	1	0	0	CorrectCommission	0.636414	0.891028	0	0	4.630435e+01
256.602234	1.292898	city	2	1	1.668759	1.668759	0	1	0	0	CorrectCommission	1.289740	0.878471	0	0	4.595652e+01
257.888458	1.279569	city	1	1	1.123894	1.123894	0	1	0	0	CorrectCommission	0.410136	0.862391	0	0	4.560870e+01
259.174652	1.292774	city	7	1	0.878726	0.878726	0	1	0	0	CorrectCommission	1.175011	0.843532	0	0	4.526087e+01
260.460815	1.279562	city	1	1	1.497611	1.497611	0	1	0	0	CorrectCommission	0.755791	0.822764	0	0	4.491304e+01
261.747131	1.293059	city	4	1	1.138838	1.138838	0	1	0	0	CorrectCommission	0.363512	0.801089	0	0	4.456522e+01
263.033447	1.279602	city	7	1	1.662627	1.662627	0	1	0	0	CorrectCommission	1.270610	0.779560	1	0	4.421739e+01
264.319641	1.292799	mountain	10	1	1.045775	1.045775	0	0	1	0	CommissionError	0.653851	0.759246	1	0	4.386957e+01
265.605835	1.279588	city	5	1	1.071023	1.071023	0	1	0	0	CorrectCommission	0.575081	0.741217	1	0	4.352174e+01
266.905457	1.319641	city	6	1	1.535022	1.535022	0	1	0	0	CorrectCommission	0.872505	0.726492	1	0	4.317391e+01
268.211731	1.292897	city	1	1	1.569886	1.569886	0	1	0	0	CorrectCommission	0.981274	0.715941	1	0	4.282609e+01
269.497986	1.279613	city	2	1	1.285177	1.285177	0	1	0	0	CorrectCommission	0.093036	0.710188	1	0	4.247826e+01
270.777588	1.279617	city	6	1	1.551485	1.551485	0	1	0	0	CorrectCommission	0.923867	0.709543	1	0	4.213043e+01
272.057098	1.279385	city	5	1	1.182569	1.182569	0	1	0	0	CorrectCommission	0.227081	0.713854	1	0	4.178261e+01
273.336578	1.279552	city	6	1	1.418598	1.418598	0	1	0	0	CorrectCommission	0.509286	0.722516	1	0	4.143478e+01
274.616211	1.279738	city	3	1	1.230275	1.230275	0	1	0	0	CorrectCommission	0.078247	0.734476	1	0	4.108696e+01
275.895874	1.279603	city	9	1	0.804416	0.804416	0	1	0	0	CorrectCommission	1.406843	0.748327	1	0	4.073913e+01
277.175476	1.279577	city	6	1	1.567673	1.567673	0	1	0	0	CorrectCommission	0.974371	0.762420	1	0	4.039130e+01
278.461731	1.292913	city	2	1	1.040727	1.040727	0	1	0	0	CorrectCommission	0.669601	0.775155	1	0	4.004348e+01
279.747955	1.279557	city	8	1	1.603260	1.603260	0	1	0	0	CorrectCommission	1.085397	0.785170	1	0	3.969565e+01
281.034180	1.292893	city	2	1	1.137455	1.137455	0	1	0	0	CorrectCommission	0.367826	0.791541	1	0	3.934783e+01
284.612946	5.864628	break	0	1	0.564455	0.564455	0	0	0	0	ThoughtProbe	2.155476	0.793894	1	39	39
288.191711	1.292942	city	6	1	1.191909	1.191909	0	1	0	0	CorrectCommission	0.197941	0.792463	1	0	3.912500e+01
289.504700	1.332988	city	4	1	0.983900	0.983900	0	1	0	0	CorrectCommission	0.846890	0.788093	1	0	3.925000e+01
290.844299	1.346246	city	3	1	1.518502	1.518502	0	1	0	0	CorrectCommission	0.820967	0.782046	1	0	3.937500e+01
292.203857	1.372858	city	9	1	1.021155	1.021155	0	1	0	0	CorrectCommission	0.730661	0.775795	1	0	3.950000e+01
293.529999	1.279419	city	8	1	1.616770	1.616770	0	1	0	0	CorrectCommission	1.127543	0.770827	1	0	3.962500e+01
294.829468	1.319551	city	9	1	1.205676	1.205676	0	1	0	0	CorrectCommission	0.154989	0.768339	1	0	3.975000e+01
296.149109	1.319725	city	7	1	1.439019	1.439019	0	1	0	0	CorrectCommission	0.572995	0.769085	1	0	3.987500e+01
297.475372	1.332771	city	5	1	1.014520	1.014520	0	1	0	0	CorrectCommission	0.751361	0.773191	1	0	40
298.828278	1.373029	city	4	1	1.324360	1.324360	0	1	0	0	CorrectCommission	0.215280	0.780173	1	0	4.012500e+01
300.167816	1.306078	city	7	1	1.048003	1.048003	0	1	0	0	CorrectCommission	0.646899	0.789060	1	0	4.025000e+01
301.467316	1.292913	city	1	0	0.000000	1.025840	0	0	0	1	OmissionError	0.716044	0.798498	0	0	4.037500e+01
302.760315	1.293074	city	2	1	0.954307	0.954307	0	1	0	0	CorrectCommission	0.939213	0.807079	0	0	4.050000e+01
304.073273	1.332877	mountain	4	1	0.529842	0.529842	0	0	1	0	CommissionError	2.263464	0.813552	0	0	4.062500e+01
305.379517	1.279605	mountain	8	0	0.000000	0.944540	1	0	0	0	CorrectOmission	0.969684	0.817078	0	0	4.075000e+01
306.665680	1.292731	city	10	1	1.399578	1.399578	0	1	0	0	CorrectCommission	0.449946	0.817369	0	0	4.087500e+01
307.965210	1.306321	city	5	1	1.096129	1.096129	0	1	0	0	CorrectCommission	0.496756	0.814690	0	0	41
309.264862	1.292979	city	10	1	0.962702	0.962702	0	1	0	0	CorrectCommission	0.913023	0.809747	0	0	4.112500e+01
310.577728	1.332771	city	2	1	1.656005	1.656005	0	1	0	0	CorrectCommission	1.249949	0.803538	0	0	4.125000e+01
311.890564	1.292888	city	6	1	1.273591	1.273591	0	1	0	0	CorrectCommission	0.056892	0.797144	0	0	4.137500e+01
313.183472	1.292940	city	9	1	0.918507	0.918507	0	1	0	0	CorrectCommission	1.050902	0.791548	1	0	4.150000e+01
314.483154	1.306371	city	7	1	1.147577	1.147577	0	1	0	0	CorrectCommission	0.336249	0.787443	1	0	4.162500e+01
315.782715	1.292746	city	4	1	0.917397	0.917397	0	1	0	0	CorrectCommission	1.054365	0.785111	1	0	4.175000e+01
317.088837	1.319539	city	9	1	1.357115	1.357115	0	1	0	0	CorrectCommission	0.317471	0.784452	1	0	4.187500e+01
318.421753	1.346299	city	7	1	1.759248	1.759248	0	1	0	0	CorrectCommission	1.572050	0.785005	1	0	42
319.754730	1.319656	city	3	1	1.379151	1.379151	0	1	0	0	CorrectCommission	0.386220	0.786035	1	0	4.212500e+01
321.074280	1.319417	city	1	1	1.000199	1.000199	0	1	0	0	CorrectCommission	0.796038	0.786772	1	0	4.225000e+01
322.393829	1.319710	city	7	1	1.183224	1.183224	0	1	0	0	CorrectCommission	0.225035	0.786485	1	0	4.237500e+01
323.706818	1.306236	city	1	1	1.434882	1.434882	0	1	0	0	CorrectCommission	0.560089	0.784728	1	0	4.250000e+01
325.032959	1.346069	mountain	7	1	2.024255	2.024255	0	0	1	0	CommissionError	2.398820	0.781437	1	0	4.262500e+01
326.352539	1.293087	city	9	1	1.594911	1.594911	0	1	0	0	CorrectCommission	1.059348	0.776940	1	0	4.275000e+01
327.645447	1.292732	city	10	1	1.137958	1.137958	0	1	0	0	CorrectCommission	0.366256	0.772050	1	0	4.287500e+01
328.958344	1.333045	city	3	1	1.231139	1.231139	0	1	0	0	CorrectCommission	0.075550	0.767870	1	0	43
330.304565	1.359394	city	9	1	1.701661	1.701661	0	1	0	0	CorrectCommission	1.392388	0.765624	1	0	4.312500e+01
331.710754	1.453018	city	8	1	1.167457	1.167457	0	1	0	0	CorrectCommission	0.274228	0.766432	1	0	4.325000e+01
333.110321	1.346064	city	2	1	1.150606	1.150606	0	1	0	0	CorrectCommission	0.326799	0.771096	1	0	4.337500e+01
334.429871	1.293071	city	4	1	0.979599	0.979599	0	1	0	0	CorrectCommission	0.860308	0.779978	1	0	4.350000e+01
335.742859	1.332908	city	7	1	1.462801	1.462801	0	1	0	0	CorrectCommission	0.647192	0.792854	1	0	4.362500e+01
337.089020	1.359378	city	6	1	1.314616	1.314616	0	1	0	0	CorrectCommission	0.184882	0.808997	0	0	4.375000e+01
338.435181	1.332953	city	3	1	0.977255	0.977255	0	1	0	0	CorrectCommission	0.867619	0.827226	0	0	4.387500e+01
341.574158	4.945002	break	0	1	0.606281	0.606281	0	0	0	0	ThoughtProbe	2.024987	0.846110	0	44	44
344.713074	1.332869	city	1	1	1.074509	1.074509	0	1	0	0	CorrectCommission	0.564206	0.864165	0	0	4.458824e+01
346.039307	1.319575	city	3	1	0.901956	0.901956	0	1	0	0	CorrectCommission	1.102540	0.880097	0	0	4.517647e+01
347.352203	1.306235	city	9	1	1.364984	1.364984	0	1	0	0	CorrectCommission	0.342020	0.892918	0	0	4.576471e+01
348.671844	1.333046	city	6	1	0.981567	0.981567	0	1	0	0	CorrectCommission	0.854167	0.902074	0	0	4.635294e+01
349.984833	1.292896	city	10	1	0.726671	0.726671	0	1	0	0	CorrectCommission	1.649395	0.907453	0	0	4.694118e+01
351.277740	1.292930	city	4	1	1.608390	1.608390	0	1	0	0	CorrectCommission	1.101401	0.909333	0	0	4.752941e+01
352.603882	1.359384	city	1	1	1.036559	1.036559	0	1	0	0	CorrectCommission	0.682603	0.908318	0	0	4.811765e+01
353.930115	1.293076	mountain	4	1	0.719619	0.719619	0	0	1	0	CommissionError	1.671395	0.905114	0	0	4.870588e+01
355.229706	1.306068	city	3	1	1.046848	1.046848	0	1	0	0	CorrectCommission	0.650503	0.900365	0	0	4.929412e+01
356.529175	1.292911	city	6	1	1.268673	1.268673	0	1	0	0	CorrectCommission	0.041550	0.894544	0	0	4.988235e+01
357.842102	1.332919	city	1	1	1.120403	1.120403	0	1	0	0	CorrectCommission	0.421027	0.887766	0	0	5.047059e+01
359.181763	1.346413	city	7	1	1.476769	1.476769	0	1	0	0	CorrectCommission	0.690767	0.879840	0	0	5.105882e+01
360.541412	1.372865	city	6	1	1.832870	1.832870	0	1	0	0	CorrectCommission	1.801734	0.870376	0	0	5.164706e+01
361.908722	1.361769	city	2	1	1.240766	1.240766	0	1	0	0	CorrectCommission	0.045516	0.858977	0	0	5.223529e+01
363.254913	1.330646	city	10	1	0.615318	0.615318	0	1	0	0	CorrectCommission	1.996796	0.845491	0	0	5.282353e+01
364.560028	1.279581	city	8	1	1.548933	1.548933	0	1	0	0	CorrectCommission	0.915907	0.830118	0	0	5.341176e+01
365.886261	1.372855	city	5	1	1.792580	1.792580	0	1	0	0	CorrectCommission	1.676039	0.813682	0	0	54
367.245728	1.346082	city	10	1	1.243424	1.243424	0	1	0	0	CorrectCommission	0.037222	0.797507	0	0	5.458824e+01
368.571930	1.306332	city	9	1	1.586710	1.586710	0	1	0	0	CorrectCommission	1.033763	0.783435	1	0	5.517647e+01
369.904785	1.359398	city	4	1	1.184023	1.184023	0	1	0	0	CorrectCommission	0.222543	0.773501	1	0	5.576471e+01
371.231049	1.293114	city	7	1	1.261788	1.261788	0	1	0	0	CorrectCommission	0.020067	0.769708	1	0	5.635294e+01
372.557373	1.359505	city	3	1	0.939082	0.939082	0	1	0	0	CorrectCommission	0.986714	0.773694	1	0	5.694118e+01
373.883606	1.292977	city	6	1	1.050006	1.050006	0	1	0	0	CorrectCommission	0.640652	0.786531	1	0	5.752941e+01
375.183136	1.306098	mountain	6	0	0.000000	1.382080	1	0	0	0	CorrectOmission	0.395357	0.808537	0	0	5.811765e+01
376.489380	1.306395	city	4	1	1.611179	1.611179	0	1	0	0	CorrectCommission	1.110101	0.839212	0	0	5.870588e+01
377.809021	1.332893	city	9	1	1.413177	1.413177	0	1	0	0	CorrectCommission	0.492372	0.877219	0	0	5.929412e+01
379.128601	1.306242	city	8	1	1.203586	1.203586	0	1	0	0	CorrectCommission	0.161512	0.920546	0	0	5.988235e+01
380.441498	1.319561	city	3	1	0.819273	0.819273	0	1	0	0	CorrectCommission	1.360493	0.966640	0	0	6.047059e+01
381.794373	1.386191	city	6	1	0.648607	0.648607	0	1	0	0	CorrectCommission	1.892939	1.012620	0	0	6.105882e+01
383.153931	1.332892	city	7	1	0.996201	0.996201	0	1	0	0	CorrectCommission	0.808511	1.055536	0	0	6.164706e+01
384.466736	1.292750	city	3	1	1.477092	1.477092	0	1	0	0	CorrectCommission	0.691776	1.092656	0	0	6.223529e+01
385.766266	1.306285	city	6	1	0.990154	0.990154	0	1	0	0	CorrectCommission	0.827378	1.121650	0	0	6.282353e+01
387.079193	1.319606	city	1	1	0.491094	0.491094	0	1	0	0	CorrectCommission	2.384350	1.140766	0	0	6.341176e+01
389.724976	3.971947	break	0	1	0.527908	0.527908	0	0	0	0	ThoughtProbe	2.269496	1.148952	0	64	64
392.370819	1.319717	city	5	1	0.997046	0.997046	0	1	0	0	CorrectCommission	0.805877	1.145930	0	0	6.373529e+01
393.670471	1.279604	city	1	1	1.603882	1.603882	0	1	0	0	CorrectCommission	1.087337	1.132244	0	0	6.347059e+01
394.970062	1.319543	city	7	1	1.339034	1.339034	0	1	0	0	CorrectCommission	0.261061	1.109060	0	0	6.320588e+01
396.302948	1.346244	city	4	1	1.724355	1.724355	0	1	0	0	CorrectCommission	1.463190	1.078169	0	0	6.294118e+01
397.629120	1.306086	mountain	4	1	1.971944	1.971944	0	0	1	0	CommissionError	2.235618	1.041661	0	0	6.267647e+01
398.928680	1.293052	city	5	1	1.534998	1.534998	0	1	0	0	CorrectCommission	0.872433	1.001874	0	0	6.241176e+01
400.215027	1.279667	city	10	1	1.381059	1.381059	0	1	0	0	CorrectCommission	0.392171	0.961154	0	0	6.214706e+01
401.541260	1.372786	city	4	1	0.841162	0.841162	0	1	0	0	CorrectCommission	1.292204	0.921644	0	0	6.188235e+01
402.934021	1.412706	city	3	1	1.362239	1.362239	0	1	0	0	CorrectCommission	0.333455	0.885105	0	0	6.161765e+01
404.286835	1.292954	city	4	1	1.416432	1.416432	0	1	0	0	CorrectCommission	0.502528	0.852821	0	0	6.135294e+01
405.639801	1.412979	city	1	1	1.322224	1.322224	0	1	0	0	CorrectCommission	0.208617	0.825530	0	0	6.108824e+01
407.006073	1.319568	city	7	1	1.684141	1.684141	0	1	0	0	CorrectCommission	1.337729	0.803475	0	0	6.082353e+01
408.332306	1.332911	city	2	1	1.421993	1.421993	0	1	0	0	CorrectCommission	0.519876	0.786416	1	0	6.055882e+01
409.665222	1.332895	city	1	1	1.044792	1.044792	0	1	0	0	CorrectCommission	0.656916	0.773908	1	0	6.029412e+01
410.984680	1.306051	city	3	1	1.587907	1.587907	0	1	0	0	CorrectCommission	1.037498	0.765387	1	0	6.002941e+01
412.304199	1.332933	city	8	1	0.953176	0.953176	0	1	0	0	CorrectCommission	0.942742	0.760316	1	0	5.976471e+01
413.637177	1.333046	city	6	1	1.646247	1.646247	0	1	0	0	CorrectCommission	1.219507	0.758293	1	0	5.950000e+01
414.983490	1.359560	city	2	1	1.087399	1.087399	0	1	0	0	CorrectCommission	0.523991	0.759090	1	0	5.923529e+01
416.329712	1.332912	city	9	1	1.443993	1.443993	0	1	0	0	CorrectCommission	0.588513	0.762637	1	0	5.897059e+01
417.662506	1.332695	city	4	1	1.283932	1.283932	0	1	0	0	CorrectCommission	0.089154	0.768939	1	0	5.870588e+01
419.035278	1.412857	city	5	1	1.303694	1.303694	0	1	0	0	CorrectCommission	0.150807	0.777983	1	0	5.844118e+01
420.408173	1.332898	city	10	1	0.945787	0.945787	0	1	0	0	CorrectCommission	0.965795	0.789685	1	0	5.817647e+01
421.714478	1.279724	mountain	9	1	0.498746	0.498746	0	0	1	0	CommissionError	2.360476	0.803839	0	0	5.791176e+01
422.994141	1.279595	city	4	1	1.294664	1.294664	0	1	0	0	CorrectCommission	0.122635	0.820073	0	0	5.764706e+01
424.280426	1.292954	city	1	1	1.482094	1.482094	0	1	0	0	CorrectCommission	0.707382	0.837939	0	0	5.738235e+01
425.613312	1.372842	city	8	1	1.081268	1.081268	0	1	0	0	CorrectCommission	0.543118	0.856752	0	0	5.711765e+01
426.946106	1.292762	city	4	1	0.988649	0.988649	0	1	0	0	CorrectCommission	0.832073	0.875691	0	0	5.685294e+01
428.258942	1.332875	city	3	1	1.672676	1.672676	0	1	0	0	CorrectCommission	1.301960	0.893842	0	0	5.658824e+01
429.598450	1.346179	city	7	1	1.427201	1.427201	0	1	0	0	CorrectCommission	0.536125	0.910296	0	0	5.632353e+01
430.964691	1.386251	city	10	1	1.593772	1.593772	0	1	0	0	CorrectCommission	1.055793	0.924208	0	0	5.605882e+01
432.350983	1.386380	city	3	1	1.683489	1.683489	0	1	0	0	CorrectCommission	1.335695	0.934921	0	0	5.579412e+01
433.743866	1.399370	city	6	1	1.210412	1.210412	0	1	0	0	CorrectCommission	0.140215	0.942101	0	0	5.552941e+01
435.116669	1.346237	city	5	1	1.683838	1.683838	0	1	0	0	CorrectCommission	1.336783	0.945875	0	0	5.526471e+01
438.249054	4.918507	break	0	0	0.000000	1.808677	0	0	0	0	ThoughtProbe	1.726259	0.946753	0	55	55
441.394745	1.372928	city	7	1	1.730859	1.730859	0	1	0	0	CorrectCommission	1.483481	0.945672	0	0	5.465217e+01
442.740997	1.319567	city	3	1	1.596312	1.596312	0	1	0	0	CorrectCommission	1.063718	0.943829	0	0	5.430435e+01
444.047241	1.292907	city	6	1	1.436422	1.436422	0	1	0	0	CorrectCommission	0.564894	0.942414	0	0	5.395652e+01
445.360107	1.332813	city	8	1	1.140765	1.140765	0	1	0	0	CorrectCommission	0.357500	0.942374	0	0	5.360870e+01
446.719635	1.386271	city	9	1	1.022680	1.022680	0	1	0	0	CorrectCommission	0.725903	0.944148	0	0	5.326087e+01
448.072571	1.319591	city	2	1	1.172284	1.172284	0	1	0	0	CorrectCommission	0.259166	0.947508	0	0	5.291304e+01
449.385437	1.306106	city	10	1	1.092169	1.092169	0	1	0	0	CorrectCommission	0.509112	0.951597	0	0	5.256522e+01
450.678345	1.279708	mountain	2	0	0.000000	1.449755	1	0	0	0	CorrectOmission	0.606489	0.955054	0	0	5.221739e+01
451.977966	1.319574	city	1	1	1.867436	1.867436	0	1	0	0	CorrectCommission	1.909576	0.956307	0	0	5.186957e+01
453.284149	1.292753	city	4	1	1.967607	1.967607	0	1	0	0	CorrectCommission	2.222088	0.953903	0	0	5.152174e+01
454.623688	1.386338	city	8	1	1.743163	1.743163	0	1	0	0	CorrectCommission	1.521866	0.946875	0	0	5.117391e+01
455.969971	1.306231	city	2	1	1.485833	1.485833	0	1	0	0	CorrectCommission	0.719047	0.934994	0	0	5.082609e+01
457.329529	1.412888	city	3	1	1.233711	1.233711	0	1	0	0	CorrectCommission	0.067528	0.918818	0	0	5.047826e+01
458.709015	1.346094	mountain	6	1	0.677264	0.677264	0	0	1	0	CommissionError	1.803536	0.899592	0	0	5.013043e+01
460.028564	1.293020	city	5	1	1.553956	1.553956	0	1	0	0	CorrectCommission	0.931578	0.878996	0	0	4.978261e+01
461.328156	1.306124	city	6	1	1.311203	1.311203	0	1	0	0	CorrectCommission	0.174234	0.858949	0	0	4.943478e+01
462.634399	1.306360	city	4	1	1.404357	1.404357	0	1	0	0	CorrectCommission	0.464857	0.841272	0	0	4.908696e+01
463.967255	1.359380	city	10	1	1.072203	1.072203	0	1	0	0	CorrectCommission	0.571400	0.827396	0	0	4.873913e+01
465.313446	1.332990	mountain	1	1	1.498407	1.498407	0	0	1	0	CommissionError	0.758275	0.818265	0	0	4.839130e+01
466.653076	1.346288	city	1	1	1.076609	1.076609	0	1	0	0	CorrectCommission	0.557656	0.814355	0	0	4.804348e+01
467.972595	1.292752	city	2	1	0.844165	0.844165	0	1	0	0	CorrectCommission	1.282835	0.815734	0	0	4.769565e+01
469.292175	1.346377	city	5	1	1.412511	1.412511	0	1	0	0	CorrectCommission	0.490296	0.822217	0	0	4.734783e+01
470.625153	1.319577	city	10	1	0.907702	0.907702	0	1	0	0	CorrectCommission	1.084611	0.833573	0	0	47
471.931396	1.292935	city	8	1	1.658097	1.658097	0	1	0	0	CorrectCommission	1.256478	0.849572	0	0	4.665217e+01
473.244232	1.332703	city	1	1	1.161021	1.161021	0	1	0	0	CorrectCommission	0.294304	0.870105	0	0	4.630435e+01
474.583679	1.346209	city	8	1	0.912391	0.912391	0	1	0	0	CorrectCommission	1.069984	0.895147	0	0	4.595652e+01
475.936615	1.359657	city	7	1	1.590581	1.590581	0	1	0	0	CorrectCommission	1.045840	0.924562	0	0	4.560870e+01
477.296173	1.359462	city	10	1	1.101561	1.101561	0	1	0	0	CorrectCommission	0.479809	0.958010	0	0	4.526087e+01
478.615723	1.279664	mountain	8	0	0.000000	1.417062	1	0	0	0	CorrectOmission	0.504492	0.994825	0	0	4.491304e+01
479.902069	1.292997	city	4	1	1.769622	1.769622	0	1	0	0	CorrectCommission	1.604414	1.033930	0	0	4.456522e+01
481.214996	1.332894	city	3	1	1.391784	1.391784	0	1	0	0	CorrectCommission	0.425630	1.073833	0	0	4.421739e+01
482.561157	1.359438	city	1	1	0.863749	0.863749	0	1	0	0	CorrectCommission	1.221736	1.112902	0	0	4.386957e+01
483.913971	1.346180	city	4	1	1.416551	1.416551	0	1	0	0	CorrectCommission	0.502901	1.149619	0	0	4.352174e+01
485.260254	1.346396	city	5	1	1.594079	1.594079	0	1	0	0	CorrectCommission	1.056752	1.183008	0	0	4.317391e+01
486.599823	1.332718	city	1	1	2.056706	2.056706	0	1	0	0	CorrectCommission	2.500059	1.212977	0	0	4.282609e+01
487.932739	1.333103	city	5	1	2.188905	2.188905	0	1	0	0	CorrectCommission	2.912497	1.240526	0	0	4.247826e+01
489.265717	1.332875	city	10	1	1.806992	1.806992	0	1	0	0	CorrectCommission	1.721001	1.267886	0	0	4.213043e+01
490.605255	1.346198	city	1	1	1.439709	1.439709	0	1	0	0	CorrectCommission	0.575146	1.298365	0	0	4.178261e+01
491.944763	1.332813	city	9	1	1.421921	1.421921	0	1	0	0	CorrectCommission	0.519654	1.335892	0	0	4.143478e+01
493.310974	1.399611	city	1	1	1.067904	1.067904	0	1	0	0	CorrectCommission	0.584812	1.384385	0	0	4.108696e+01
494.670563	1.319584	city	5	1	1.712291	1.712291	0	1	0	0	CorrectCommission	1.425551	1.447069	0	0	4.073913e+01
495.990143	1.319549	city	1	0	0.000000	1.625926	0	0	0	1	OmissionError	1.156108	1.525870	0	0	4.039130e+01
497.329620	1.359409	city	9	1	1.225583	1.225583	0	1	0	0	CorrectCommission	0.092884	1.620932	0	0	4.004348e+01
498.669189	1.319722	city	4	1	0.928039	0.928039	0	1	0	0	CorrectCommission	1.021165	1.730493	0	0	3.969565e+01
499.982086	1.306063	city	2	1	0.484754	0.484754	0	1	0	0	CorrectCommission	2.404129	1.850916	0	0	3.934783e+01
503.140991	5.011792	break	0	0	0.621621	0.621621	0	0	0	0	ThoughtProbe	1.977129	1.977129	0	39	39
