onset	duration	trial_type	image_type	Press	ReactionTime	ReactionTime_Interpolated	CorrectOmission	CorrectCommission	CommissionError	OmissionError	response_type	nonsmoothVarianceTimeCourse	VarianceTimeCourse	In_the_Zone	ThoughtProbe	ThoughtProbe_Interpolated
0.659432	1.292956	city	2	1	1.194139	1.194139	0	1	0	0	CorrectCommission	0.139951	0.139951	1	0	82
1.958923	1.306027	city	8	1	1.047318	1.047318	0	1	0	0	CorrectCommission	0.567133	0.267195	1	0	82
3.251738	1.279602	city	1	1	0.860753	0.860753	0	1	0	0	CorrectCommission	1.109949	0.389670	1	0	82
4.597967	1.412856	city	2	1	1.094988	1.094988	0	1	0	0	CorrectCommission	0.428435	0.502895	1	0	82
5.950844	1.292900	city	9	1	0.981402	0.981402	0	1	0	0	CorrectCommission	0.758916	0.603012	1	0	82
7.243754	1.292920	city	2	1	0.955362	0.955362	0	1	0	0	CorrectCommission	0.834681	0.686999	1	0	82
8.530075	1.279721	city	9	1	0.889837	0.889837	0	1	0	0	CorrectCommission	1.025329	0.753011	1	0	82
9.816400	1.292928	city	1	1	0.791034	0.791034	0	1	0	0	CorrectCommission	1.312798	0.800510	1	0	82
11.115987	1.306247	city	2	1	0.678517	0.678517	0	1	0	0	CorrectCommission	1.640169	0.830407	0	0	82
12.415508	1.292797	city	4	1	0.733088	0.733088	0	1	0	0	CorrectCommission	1.481393	0.845007	0	0	82
13.701740	1.279667	city	2	1	0.770618	0.770618	0	1	0	0	CorrectCommission	1.372197	0.847865	0	0	82
14.994703	1.306258	city	8	1	1.488377	1.488377	0	1	0	0	CorrectCommission	0.716143	0.843416	0	0	82
16.294275	1.292886	city	7	1	1.034709	1.034709	0	1	0	0	CorrectCommission	0.603819	0.836490	0	0	82
17.580509	1.279582	mountain	6	0	0.000000	1.056670	1	0	0	0	CorrectOmission	0.539922	0.831704	0	0	82
18.860003	1.279404	mountain	3	0	0.000000	1.251228	1	0	0	0	CorrectOmission	0.026150	0.832925	0	0	82
20.146162	1.292918	city	4	1	1.315349	1.315349	0	1	0	0	CorrectCommission	0.212712	0.842746	0	0	82
21.439167	1.293089	city	7	1	0.946000	0.946000	0	1	0	0	CorrectCommission	0.861920	0.862172	0	0	82
22.725447	1.279473	city	5	1	1.287299	1.287299	0	1	0	0	CorrectCommission	0.131099	0.890516	0	0	82
24.004976	1.279585	city	4	1	1.074759	1.074759	0	1	0	0	CorrectCommission	0.487292	0.925600	0	0	82
25.291275	1.293013	city	8	1	1.046049	1.046049	0	1	0	0	CorrectCommission	0.570823	0.964073	0	0	82
26.584232	1.292902	city	10	1	0.635360	0.635360	0	1	0	0	CorrectCommission	1.765736	1.001952	0	0	82
27.870388	1.279409	city	8	1	0.542409	0.542409	0	1	0	0	CorrectCommission	2.036180	1.035170	0	0	82
29.149912	1.279638	city	3	1	0.513836	0.513836	0	1	0	0	CorrectCommission	2.119314	1.060143	0	0	82
30.442892	1.306324	city	8	1	0.696149	0.696149	0	1	0	0	CorrectCommission	1.588869	1.074174	0	0	82
31.735855	1.279602	city	9	1	1.354328	1.354328	0	1	0	0	CorrectCommission	0.326122	1.075676	0	0	82
33.015438	1.279562	city	2	1	0.808767	0.808767	0	1	0	0	CorrectCommission	1.261203	1.064267	0	0	82
34.301682	1.292927	city	6	1	0.910892	0.910892	0	1	0	0	CorrectCommission	0.964069	1.040579	0	0	82
35.594509	1.292726	mountain	4	1	0.681335	0.681335	0	0	1	0	CommissionError	1.631971	1.006151	0	0	82
36.900654	1.319562	city	3	1	1.178484	1.178484	0	1	0	0	CorrectCommission	0.185502	0.963178	0	0	82
38.200306	1.279746	city	10	1	0.886416	0.886416	0	1	0	0	CorrectCommission	1.035282	0.914322	0	0	82
39.479965	1.279575	city	5	1	0.599755	0.599755	0	1	0	0	CorrectCommission	1.869330	0.862428	0	0	82
40.759464	1.279421	city	2	1	1.613877	1.613877	0	1	0	0	CorrectCommission	1.081288	0.810391	1	0	82
42.038975	1.279598	city	7	1	1.237425	1.237425	0	1	0	0	CorrectCommission	0.014009	0.761028	1	0	82
43.318558	1.279573	city	4	1	0.969730	0.969730	0	1	0	0	CorrectCommission	0.792877	0.716884	1	0	82
44.618221	1.319749	city	2	1	1.237300	1.237300	0	1	0	0	CorrectCommission	0.014373	0.680029	1	0	82
45.944534	1.332880	city	8	1	1.146218	1.146218	0	1	0	0	CorrectCommission	0.279378	0.652023	1	0	82
47.250751	1.279555	city	1	1	1.265166	1.265166	0	1	0	0	CorrectCommission	0.066702	0.633791	1	0	82
48.530239	1.279418	city	2	1	0.974834	0.974834	0	1	0	0	CorrectCommission	0.778026	0.625594	1	0	82
49.816483	1.293072	city	4	1	1.703856	1.703856	0	1	0	0	CorrectCommission	1.343085	0.627026	1	0	82
54.008533	7.091023	break	0	1	1.164319	1.164319	0	0	0	0	ThoughtProbe	0.226713	0.637124	1	82	82
58.193821	1.279558	city	2	1	1.298918	1.298918	0	1	0	0	CorrectCommission	0.164904	0.654504	1	0	8.178261e+01
59.473400	1.279599	city	7	1	1.318047	1.318047	0	1	0	0	CorrectCommission	0.220562	0.677413	1	0	8.156522e+01
60.752941	1.279483	city	9	1	0.970436	0.970436	0	1	0	0	CorrectCommission	0.790822	0.703915	1	0	8.134783e+01
62.039108	1.292853	city	10	1	0.916176	0.916176	0	1	0	0	CorrectCommission	0.948693	0.732029	1	0	8.113043e+01
63.332066	1.293062	city	3	1	1.761762	1.761762	0	1	0	0	CorrectCommission	1.511564	0.759874	1	0	8.091304e+01
64.644951	1.332703	city	9	1	1.477322	1.477322	0	1	0	0	CorrectCommission	0.683976	0.785774	1	0	8.069565e+01
65.957756	1.292909	city	6	1	1.145573	1.145573	0	1	0	0	CorrectCommission	0.281255	0.808432	1	0	8.047826e+01
67.244003	1.279585	city	1	1	0.776096	0.776096	0	1	0	0	CorrectCommission	1.356261	0.826898	0	0	8.026087e+01
68.530281	1.292971	city	7	1	0.879054	0.879054	0	1	0	0	CorrectCommission	1.056702	0.840599	0	0	8.004348e+01
69.823273	1.293006	city	3	1	1.516876	1.516876	0	1	0	0	CorrectCommission	0.799061	0.849375	0	0	7.982609e+01
71.116226	1.292903	city	7	1	1.102067	1.102067	0	1	0	0	CorrectCommission	0.407837	0.853450	0	0	7.960870e+01
72.402466	1.279583	mountain	1	1	0.751432	0.751432	0	0	1	0	CommissionError	1.428020	0.853367	0	0	7.939130e+01
73.681976	1.279432	mountain	4	0	0.000000	0.875428	1	0	0	0	CorrectOmission	1.067250	0.849887	0	0	7.917391e+01
74.961578	1.279779	city	10	1	1.073821	1.073821	0	1	0	0	CorrectCommission	0.490022	0.843995	0	0	7.895652e+01
76.247871	1.292796	city	1	1	0.946376	0.946376	0	1	0	0	CorrectCommission	0.860827	0.836753	0	0	7.873913e+01
77.534042	1.279556	mountain	4	1	0.647760	0.647760	0	0	1	0	CommissionError	1.729658	0.829143	0	0	7.852174e+01
78.813660	1.279681	city	4	1	1.394346	1.394346	0	1	0	0	CorrectCommission	0.442555	0.821953	0	0	7.830435e+01
80.099869	1.292727	city	9	1	1.306247	1.306247	0	1	0	0	CorrectCommission	0.186228	0.815679	0	0	7.808696e+01
81.392723	1.292982	city	6	1	1.191097	1.191097	0	1	0	0	CorrectCommission	0.148803	0.810412	1	0	7.786957e+01
82.685776	1.293136	city	10	1	0.801944	0.801944	0	1	0	0	CorrectCommission	1.281054	0.805833	1	0	7.765217e+01
83.978729	1.292769	city	5	1	1.103952	1.103952	0	1	0	0	CorrectCommission	0.402352	0.801231	1	0	7.743478e+01
85.264832	1.279435	city	4	1	0.812169	0.812169	0	1	0	0	CorrectCommission	1.251305	0.795742	1	0	7.721739e+01
86.544334	1.279560	city	3	1	1.695322	1.695322	0	1	0	0	CorrectCommission	1.318254	0.788431	1	0	77
87.837318	1.306413	city	5	1	1.496370	1.496370	0	1	0	0	CorrectCommission	0.739398	0.778550	1	0	7.678261e+01
89.143639	1.306235	city	1	1	1.207565	1.207565	0	1	0	0	CorrectCommission	0.100889	0.765696	1	0	7.656522e+01
90.456543	1.319562	mountain	1	1	0.746167	0.746167	0	0	1	0	CommissionError	1.443339	0.749914	1	0	7.634783e+01
91.756050	1.279452	city	3	1	0.805151	0.805151	0	1	0	0	CorrectCommission	1.271723	0.731675	1	0	7.613043e+01
93.042282	1.293013	city	7	1	1.512159	1.512159	0	1	0	0	CorrectCommission	0.785337	0.711895	1	0	7.591304e+01
94.335182	1.292792	city	8	1	0.995938	0.995938	0	1	0	0	CorrectCommission	0.716622	0.691769	1	0	7.569565e+01
95.628029	1.292899	city	7	1	1.258827	1.258827	0	1	0	0	CorrectCommission	0.048260	0.672523	1	0	7.547826e+01
96.921005	1.293060	city	8	1	1.346550	1.346550	0	1	0	0	CorrectCommission	0.303493	0.655287	1	0	7.526087e+01
98.233994	1.332908	city	5	1	1.289743	1.289743	0	1	0	0	CorrectCommission	0.138210	0.640867	1	0	7.504348e+01
99.540230	1.279572	city	1	1	1.559583	1.559583	0	1	0	0	CorrectCommission	0.923319	0.629713	1	0	7.482609e+01
100.819801	1.279564	city	9	1	1.124808	1.124808	0	1	0	0	CorrectCommission	0.341671	0.621810	1	0	7.460870e+01
102.099365	1.279570	city	7	1	0.865832	0.865832	0	1	0	0	CorrectCommission	1.095171	0.616819	1	0	7.439130e+01
103.385521	1.292745	city	2	1	1.568985	1.568985	0	1	0	0	CorrectCommission	0.950674	0.614129	1	0	7.417391e+01
104.671730	1.279668	city	3	1	1.143468	1.143468	0	1	0	0	CorrectCommission	0.287382	0.613007	1	0	7.395652e+01
105.951309	1.279492	city	2	1	1.409122	1.409122	0	1	0	0	CorrectCommission	0.485546	0.612683	1	0	7.373913e+01
107.244225	1.306337	city	8	1	0.848750	0.848750	0	1	0	0	CorrectCommission	1.144870	0.612445	1	0	7.352174e+01
108.543793	1.292808	city	2	1	1.220327	1.220327	0	1	0	0	CorrectCommission	0.063758	0.611716	1	0	7.330435e+01
109.830086	1.279773	city	8	1	1.399079	1.399079	0	1	0	0	CorrectCommission	0.456326	0.610132	1	0	7.308696e+01
111.123009	1.306073	city	4	1	1.098739	1.098739	0	1	0	0	CorrectCommission	0.417522	0.607477	1	0	7.286957e+01
112.442574	1.333056	city	9	1	0.900314	0.900314	0	1	0	0	CorrectCommission	0.994843	0.603826	1	0	7.265217e+01
113.762207	1.306215	city	3	1	1.650899	1.650899	0	1	0	0	CorrectCommission	1.189003	0.599495	1	0	7.243478e+01
115.055115	1.279598	city	6	1	1.423733	1.423733	0	1	0	0	CorrectCommission	0.528058	0.595047	1	0	7.221739e+01
118.727356	6.064879	break	0	0	0.000000	1.416814	0	0	0	0	ThoughtProbe	0.507927	0.591277	1	72	72
122.399399	1.279212	city	6	1	1.358182	1.358182	0	1	0	0	CorrectCommission	0.337337	0.589110	1	0	7.178261e+01
123.698807	1.319612	city	10	1	0.975877	0.975877	0	1	0	0	CorrectCommission	0.774991	0.589448	1	0	7.156522e+01
124.998367	1.279507	mountain	8	0	0.000000	1.233129	1	0	0	0	CorrectOmission	0.026511	0.593058	1	0	7.134783e+01
126.277916	1.279579	city	3	1	1.501148	1.501148	0	1	0	0	CorrectCommission	0.753300	0.600491	1	0	7.113043e+01
127.584152	1.332902	city	5	1	1.151149	1.151149	0	1	0	0	CorrectCommission	0.265034	0.611897	1	0	7.091304e+01
128.910431	1.319652	city	10	1	0.907867	0.907867	0	1	0	0	CorrectCommission	0.972870	0.627075	1	0	7.069565e+01
130.216705	1.292890	city	6	1	1.205439	1.205439	0	1	0	0	CorrectCommission	0.107075	0.645432	1	0	7.047826e+01
131.509567	1.292849	city	4	1	1.107391	1.107391	0	1	0	0	CorrectCommission	0.392347	0.666142	1	0	7.026087e+01
132.795868	1.279739	city	2	1	0.920752	0.920752	0	1	0	0	CorrectCommission	0.935380	0.688199	1	0	7.004348e+01
134.082199	1.292916	mountain	1	1	0.805055	0.805055	0	0	1	0	CommissionError	1.272002	0.710657	1	0	6.982609e+01
135.368423	1.279556	mountain	5	0	0.000000	0.998259	1	0	0	0	CorrectOmission	0.709871	0.732754	1	0	6.960870e+01
136.661331	1.306239	city	7	1	1.127036	1.127036	0	1	0	0	CorrectCommission	0.335191	0.754074	1	0	6.939130e+01
137.954147	1.279414	city	1	1	0.818059	0.818059	0	1	0	0	CorrectCommission	1.234169	0.774582	1	0	6.917391e+01
139.233673	1.279610	city	6	1	1.709423	1.709423	0	1	0	0	CorrectCommission	1.359282	0.794533	1	0	6.895652e+01
140.513260	1.279570	city	7	1	1.308958	1.308958	0	1	0	0	CorrectCommission	0.194116	0.814411	0	0	6.873913e+01
141.812897	1.319707	city	4	1	0.951627	0.951627	0	1	0	0	CorrectCommission	0.845548	0.834790	0	0	6.852174e+01
143.119110	1.292737	city	2	1	1.622303	1.622303	0	1	0	0	CorrectCommission	1.105804	0.856020	0	0	6.830435e+01
144.405365	1.279748	city	7	1	1.393752	1.393752	0	1	0	0	CorrectCommission	0.440826	0.878109	0	0	6.808696e+01
145.685028	1.279578	city	6	1	1.072440	1.072440	0	1	0	0	CorrectCommission	0.494039	0.900578	0	0	6.786957e+01
146.964615	1.279604	city	7	1	1.612566	1.612566	0	1	0	0	CorrectCommission	1.077473	0.922423	0	0	6.765217e+01
148.257477	1.306117	city	8	1	1.099129	1.099129	0	1	0	0	CorrectCommission	0.416387	0.942190	0	0	6.743478e+01
149.563690	1.306312	city	3	1	0.930334	0.930334	0	1	0	0	CorrectCommission	0.907499	0.958172	0	0	6.721739e+01
150.856567	1.279445	mountain	3	1	0.590536	0.590536	0	0	1	0	CommissionError	1.896152	0.968684	0	0	67
152.136078	1.279573	city	5	1	0.863345	0.863345	0	1	0	0	CorrectCommission	1.102407	0.972345	0	0	6.678261e+01
153.428986	1.306240	city	6	1	0.745426	0.745426	0	1	0	0	CorrectCommission	1.445496	0.968396	0	0	6.656522e+01
154.728638	1.293062	city	5	1	0.645375	0.645375	0	1	0	0	CorrectCommission	1.736597	0.956812	0	0	6.634783e+01
156.014954	1.279586	city	8	1	1.729598	1.729598	0	1	0	0	CorrectCommission	1.417982	0.938396	0	0	6.613043e+01
157.294525	1.279561	city	3	1	1.290189	1.290189	0	1	0	0	CorrectCommission	0.139509	0.914695	0	0	6.591304e+01
158.574112	1.279599	city	6	1	1.387450	1.387450	0	1	0	0	CorrectCommission	0.422491	0.887849	0	0	6.569565e+01
159.867035	1.306255	city	1	1	1.327646	1.327646	0	1	0	0	CorrectCommission	0.248491	0.860291	0	0	6.547826e+01
161.193192	1.346067	city	2	1	0.816678	0.816678	0	1	0	0	CorrectCommission	1.238184	0.834501	0	0	6.526087e+01
162.506042	1.279612	city	6	1	0.721064	0.721064	0	1	0	0	CorrectCommission	1.516378	0.812690	1	0	6.504348e+01
163.812347	1.333019	city	8	1	1.346888	1.346888	0	1	0	0	CorrectCommission	0.304475	0.796653	1	0	6.482609e+01
165.125320	1.292902	city	3	1	1.084144	1.084144	0	1	0	0	CorrectCommission	0.459984	0.787601	1	0	6.460870e+01
166.411560	1.279578	city	9	1	1.567463	1.567463	0	1	0	0	CorrectCommission	0.946244	0.785959	1	0	6.439130e+01
167.711136	1.319579	city	3	1	1.162374	1.162374	0	1	0	0	CorrectCommission	0.232373	0.791396	1	0	6.417391e+01
169.010696	1.279552	city	4	1	1.400103	1.400103	0	1	0	0	CorrectCommission	0.459306	0.802886	1	0	6.395652e+01
170.310196	1.319442	city	3	1	1.220965	1.220965	0	1	0	0	CorrectCommission	0.061902	0.818794	0	0	6.373913e+01
171.609680	1.279539	city	10	1	0.705476	0.705476	0	1	0	0	CorrectCommission	1.561730	0.837132	0	0	6.352174e+01
172.909317	1.319740	city	7	1	1.708179	1.708179	0	1	0	0	CorrectCommission	1.355663	0.855796	0	0	6.330435e+01
174.215652	1.292914	city	2	1	1.261310	1.261310	0	1	0	0	CorrectCommission	0.055483	0.872924	0	0	6.308696e+01
175.508560	1.292904	city	5	1	0.809521	0.809521	0	1	0	0	CorrectCommission	1.259010	0.887171	0	0	6.286957e+01
176.794800	1.279571	city	3	1	0.485089	0.485089	0	1	0	0	CorrectCommission	2.202952	0.897844	0	0	6.265217e+01
178.087631	1.306107	city	5	1	0.833692	0.833692	0	1	0	0	CorrectCommission	1.188683	0.904979	0	0	6.243478e+01
179.400543	1.319710	city	8	1	1.553495	1.553495	0	1	0	0	CorrectCommission	0.905604	0.909306	0	0	6.221739e+01
183.079437	6.038068	break	0	0	0.000000	1.456779	0	0	0	0	ThoughtProbe	0.624208	0.912012	0	62	62
186.738235	1.279530	city	9	1	1.134433	1.134433	0	1	0	0	CorrectCommission	0.313669	0.914451	0	0	6.240000e+01
188.017792	1.279579	city	2	1	1.177342	1.177342	0	1	0	0	CorrectCommission	0.188822	0.917865	0	0	6.280000e+01
189.297348	1.279559	mountain	4	1	0.816407	0.816407	0	0	1	0	CommissionError	1.238973	0.923120	0	0	6.320000e+01
190.576920	1.279574	city	3	1	1.621901	1.621901	0	1	0	0	CorrectCommission	1.104635	0.930531	0	0	6.360000e+01
191.869736	1.306068	city	6	1	1.150988	1.150988	0	1	0	0	CorrectCommission	0.265500	0.939873	0	0	64
193.175980	1.306400	city	1	1	0.889489	0.889489	0	1	0	0	CorrectCommission	1.026339	0.950471	0	0	6.440000e+01
194.475632	1.292917	city	2	1	0.662808	0.662808	0	1	0	0	CorrectCommission	1.685876	0.961300	0	0	6.480000e+01
195.768555	1.292923	city	4	1	0.988775	0.988775	0	1	0	0	CorrectCommission	0.737464	0.971230	0	0	6.520000e+01
197.054733	1.279423	city	5	1	0.657423	0.657423	0	1	0	0	CorrectCommission	1.701544	0.979271	0	0	6.560000e+01
198.334259	1.279644	city	6	1	1.511567	1.511567	0	1	0	0	CorrectCommission	0.783615	0.984613	0	0	66
199.627167	1.306165	city	1	1	0.947871	0.947871	0	1	0	0	CorrectCommission	0.856474	0.986741	0	0	6.640000e+01
200.920120	1.279732	city	4	1	1.651708	1.651708	0	1	0	0	CorrectCommission	1.191358	0.985405	0	0	6.680000e+01
202.226364	1.332758	mountain	3	0	0.000000	1.535872	1	0	0	0	CorrectOmission	0.854331	0.980533	0	0	6.720000e+01
203.532593	1.279714	city	9	1	1.098472	1.098472	0	1	0	0	CorrectCommission	0.418297	0.972195	0	0	6.760000e+01
204.825577	1.306258	city	1	1	0.837615	0.837615	0	1	0	0	CorrectCommission	1.177267	0.960459	0	0	68
206.131836	1.306243	mountain	4	1	0.602704	0.602704	0	0	1	0	CommissionError	1.860748	0.945347	0	0	6.840000e+01
207.424667	1.279432	city	2	1	1.018606	1.018606	0	1	0	0	CorrectCommission	0.650671	0.926852	0	0	6.880000e+01
208.704193	1.279627	city	7	1	1.507152	1.507152	0	1	0	0	CorrectCommission	0.770769	0.904933	0	0	6.920000e+01
209.990417	1.292813	city	6	1	0.985713	0.985713	0	1	0	0	CorrectCommission	0.746373	0.879532	0	0	6.960000e+01
211.276611	1.279582	city	7	1	1.084500	1.084500	0	1	0	0	CorrectCommission	0.458949	0.850701	0	0	70
212.569626	1.306427	city	2	1	0.742347	0.742347	0	1	0	0	CorrectCommission	1.454454	0.818677	0	0	7.040000e+01
213.869232	1.292803	city	9	1	1.749249	1.749249	0	1	0	0	CorrectCommission	1.475156	0.783940	1	0	7.080000e+01
215.162140	1.293002	city	6	1	1.370371	1.370371	0	1	0	0	CorrectCommission	0.372800	0.747261	1	0	7.120000e+01
216.468430	1.319582	city	7	1	1.047469	1.047469	0	1	0	0	CorrectCommission	0.566693	0.709723	1	0	7.160000e+01
217.781296	1.306135	city	3	1	1.553629	1.553629	0	1	0	0	CorrectCommission	0.905995	0.672645	1	0	72
219.074097	1.279485	city	5	1	1.407932	1.407932	0	1	0	0	CorrectCommission	0.482083	0.637500	1	0	7.240000e+01
220.367035	1.306396	city	8	1	1.110408	1.110408	0	1	0	0	CorrectCommission	0.383570	0.605849	1	0	7.280000e+01
221.673370	1.306263	city	7	1	1.108044	1.108044	0	1	0	0	CorrectCommission	0.390449	0.579186	1	0	7.320000e+01
222.972946	1.292898	city	6	1	1.470688	1.470688	0	1	0	0	CorrectCommission	0.664674	0.558806	1	0	7.360000e+01
224.259140	1.279474	city	2	1	1.303548	1.303548	0	1	0	0	CorrectCommission	0.178377	0.545724	1	0	74
225.545395	1.293028	city	9	1	1.078680	1.078680	0	1	0	0	CorrectCommission	0.475884	0.540593	1	0	7.440000e+01
226.831680	1.279550	city	1	1	1.192191	1.192191	0	1	0	0	CorrectCommission	0.145620	0.543658	1	0	7.480000e+01
228.111252	1.279593	city	8	1	1.034382	1.034382	0	1	0	0	CorrectCommission	0.604770	0.554766	1	0	7.520000e+01
229.390747	1.279401	city	9	1	1.194730	1.194730	0	1	0	0	CorrectCommission	0.138234	0.573314	1	0	7.560000e+01
230.676910	1.292935	city	8	1	0.875201	0.875201	0	1	0	0	CorrectCommission	1.067911	0.598327	1	0	76
231.963242	1.279720	city	7	1	1.618822	1.618822	0	1	0	0	CorrectCommission	1.095676	0.628457	1	0	7.640000e+01
233.242859	1.279504	city	8	1	1.291115	1.291115	0	1	0	0	CorrectCommission	0.142203	0.662052	1	0	7.680000e+01
234.535706	1.306214	city	5	1	1.223068	1.223068	0	1	0	0	CorrectCommission	0.055782	0.697220	1	0	7.720000e+01
235.835281	1.292929	city	3	1	1.200183	1.200183	0	1	0	0	CorrectCommission	0.122368	0.731952	1	0	7.760000e+01
239.514038	6.064591	break	0	1	0.916557	0.916557	0	0	0	0	ThoughtProbe	0.947584	0.764220	1	78	78
243.199539	1.306389	city	4	1	2.036488	2.036488	0	1	0	0	CorrectCommission	2.310885	0.792139	1	0	7.676471e+01
244.505844	1.306241	city	9	1	1.647819	1.647819	0	1	0	0	CorrectCommission	1.180043	0.814123	0	0	7.552941e+01
245.798676	1.279416	city	3	1	1.354025	1.354025	0	1	0	0	CorrectCommission	0.325241	0.829063	0	0	7.429412e+01
247.091583	1.306405	city	1	1	1.750105	1.750105	0	1	0	0	CorrectCommission	1.477647	0.836343	0	0	7.305882e+01
248.384506	1.279426	city	8	1	1.072493	1.072493	0	1	0	0	CorrectCommission	0.493884	0.835869	0	0	7.182353e+01
249.690735	1.333045	city	9	1	1.086907	1.086907	0	1	0	0	CorrectCommission	0.451947	0.828108	0	0	7.058824e+01
251.003632	1.292753	mountain	1	1	0.818474	0.818474	0	0	1	0	CommissionError	1.232959	0.813960	0	0	6.935294e+01
252.296555	1.293078	city	7	1	0.779705	0.779705	0	1	0	0	CorrectCommission	1.345759	0.794661	1	0	6.811765e+01
253.589539	1.292900	city	3	1	1.420565	1.420565	0	1	0	0	CorrectCommission	0.518840	0.771725	1	0	6.688235e+01
254.895752	1.319522	city	5	1	1.013620	1.013620	0	1	0	0	CorrectCommission	0.665176	0.746835	1	0	6.564706e+01
256.208618	1.306201	city	4	1	1.443787	1.443787	0	1	0	0	CorrectCommission	0.586406	0.721719	1	0	6.441176e+01
257.534821	1.346186	city	9	1	0.808129	0.808129	0	1	0	0	CorrectCommission	1.263059	0.698046	1	0	6.317647e+01
258.854401	1.293011	city	3	1	1.363187	1.363187	0	1	0	0	CorrectCommission	0.351897	0.677291	1	0	6.194118e+01
260.160706	1.319597	city	4	1	1.273146	1.273146	0	1	0	0	CorrectCommission	0.089922	0.660693	1	0	6.070588e+01
261.473633	1.306224	city	2	1	1.036282	1.036282	0	1	0	0	CorrectCommission	0.599240	0.649108	1	0	5.947059e+01
262.766449	1.279404	city	8	1	1.449634	1.449634	0	1	0	0	CorrectCommission	0.603418	0.643000	1	0	5.823529e+01
264.045929	1.279574	city	1	1	1.136581	1.136581	0	1	0	0	CorrectCommission	0.307420	0.642376	1	0	57
265.332245	1.293096	city	7	1	1.569964	1.569964	0	1	0	0	CorrectCommission	0.953521	0.646875	1	0	5.576471e+01
266.625244	1.292853	city	5	1	1.426341	1.426341	0	1	0	0	CorrectCommission	0.535646	0.655802	1	0	5.452941e+01
267.951477	1.359618	city	4	1	1.072547	1.072547	0	1	0	0	CorrectCommission	0.493728	0.668292	1	0	5.329412e+01
269.277710	1.292865	city	6	1	1.433625	1.433625	0	1	0	0	CorrectCommission	0.556841	0.683397	1	0	5.205882e+01
270.570618	1.292920	mountain	4	1	0.827585	0.827585	0	0	1	0	CommissionError	1.206451	0.700212	1	0	5.082353e+01
271.883484	1.332871	city	5	1	1.129991	1.129991	0	1	0	0	CorrectCommission	0.326593	0.717985	1	0	4.958824e+01
273.189667	1.279462	city	9	1	1.394183	1.394183	0	1	0	0	CorrectCommission	0.442083	0.736253	1	0	4.835294e+01
274.475922	1.293033	city	4	1	0.885509	0.885509	0	1	0	0	CorrectCommission	1.037919	0.754838	1	0	4.711765e+01
275.762238	1.279613	city	6	1	0.656454	0.656454	0	1	0	0	CorrectCommission	1.704362	0.773762	1	0	4.588235e+01
277.041870	1.279663	city	5	1	1.448553	1.448553	0	1	0	0	CorrectCommission	0.600273	0.793213	1	0	4.464706e+01
278.334778	1.306157	city	2	1	1.048031	1.048031	0	1	0	0	CorrectCommission	0.565059	0.813426	1	0	4.341176e+01
279.627563	1.279394	city	10	1	1.351462	1.351462	0	1	0	0	CorrectCommission	0.317784	0.834470	0	0	4.217647e+01
280.920380	1.306251	city	1	1	1.670863	1.670863	0	1	0	0	CorrectCommission	1.247091	0.856123	0	0	4.094118e+01
282.233337	1.319642	city	10	1	1.395724	1.395724	0	1	0	0	CorrectCommission	0.446566	0.877799	0	0	3.970588e+01
283.552979	1.319650	city	4	1	1.322861	1.322861	0	1	0	0	CorrectCommission	0.234567	0.898591	0	0	3.847059e+01
284.872559	1.319536	city	9	1	1.052313	1.052313	0	1	0	0	CorrectCommission	0.552599	0.917365	0	0	3.723529e+01
288.258026	5.451398	break	0	0	0.000000	1.683554	0	0	0	0	ThoughtProbe	1.284016	0.932936	0	36	36
291.623566	1.279666	city	4	1	2.199508	2.199508	0	1	0	0	CorrectCommission	2.785197	0.944364	0	0	3.679412e+01
292.903168	1.279512	mountain	6	1	1.583095	1.583095	0	0	1	0	CommissionError	0.991727	0.951118	0	0	3.758824e+01
294.196014	1.306214	city	3	1	1.703206	1.703206	0	1	0	0	CorrectCommission	1.341194	0.953259	0	0	3.838235e+01
295.495575	1.292900	city	8	1	1.149989	1.149989	0	1	0	0	CorrectCommission	0.268408	0.951358	0	0	3.917647e+01
296.795227	1.306400	city	5	1	0.901201	0.901201	0	1	0	0	CorrectCommission	0.992264	0.946436	0	0	3.997059e+01
298.088226	1.279599	city	1	1	1.564676	1.564676	0	1	0	0	CorrectCommission	0.938137	0.939695	0	0	4.076471e+01
299.394379	1.332714	city	8	1	1.243027	1.243027	0	1	0	0	CorrectCommission	0.002290	0.932336	0	0	4.155882e+01
300.707214	1.292960	city	10	1	0.881831	0.881831	0	1	0	0	CorrectCommission	1.048620	0.925342	0	0	4.235294e+01
302.000214	1.293006	city	4	1	1.591302	1.591302	0	1	0	0	CorrectCommission	1.015606	0.919258	0	0	4.314706e+01
303.319824	1.346241	city	8	1	1.794618	1.794618	0	1	0	0	CorrectCommission	1.607158	0.914187	0	0	4.394118e+01
304.632660	1.279426	city	3	1	1.473302	1.473302	0	1	0	0	CorrectCommission	0.672282	0.909798	0	0	4.473529e+01
305.918854	1.292990	city	7	1	1.425452	1.425452	0	1	0	0	CorrectCommission	0.533061	0.905436	0	0	4.552941e+01
307.238495	1.346300	city	5	1	1.094410	1.094410	0	1	0	0	CorrectCommission	0.430115	0.900255	0	0	4.632353e+01
308.571411	1.319531	city	10	1	0.745920	0.745920	0	1	0	0	CorrectCommission	1.444058	0.893365	0	0	4.711765e+01
309.884338	1.306285	city	7	1	0.888671	0.888671	0	1	0	0	CorrectCommission	1.028720	0.884051	0	0	4.791176e+01
311.190552	1.306154	city	1	1	1.742303	1.742303	0	1	0	0	CorrectCommission	1.454947	0.871952	0	0	4.870588e+01
312.503448	1.319646	city	8	1	1.556972	1.556972	0	1	0	0	CorrectCommission	0.915720	0.857090	0	0	4.950000e+01
313.816315	1.306104	city	9	1	1.524534	1.524534	0	1	0	0	CorrectCommission	0.821342	0.839956	0	0	5.029412e+01
315.109161	1.279579	mountain	3	0	0.000000	1.220324	1	0	0	0	CorrectOmission	0.063766	0.821478	0	0	5.108824e+01
316.402161	1.306376	city	6	1	0.886667	0.886667	0	1	0	0	CorrectCommission	1.034551	0.802944	1	0	5.188235e+01
317.695038	1.279393	city	4	1	0.765888	0.765888	0	1	0	0	CorrectCommission	1.385960	0.785823	1	0	5.267647e+01
319.014557	1.359628	city	8	1	1.418351	1.418351	0	1	0	0	CorrectCommission	0.512400	0.771598	1	0	5.347059e+01
320.347534	1.306329	city	1	1	1.543626	1.543626	0	1	0	0	CorrectCommission	0.876892	0.761598	1	0	5.426471e+01
321.647125	1.292905	city	3	1	1.258603	1.258603	0	1	0	0	CorrectCommission	0.047609	0.756781	1	0	5.505882e+01
322.933380	1.279602	city	2	1	1.027994	1.027994	0	1	0	0	CorrectCommission	0.623354	0.757634	1	0	5.585294e+01
324.239594	1.332779	city	5	1	1.069693	1.069693	0	1	0	0	CorrectCommission	0.502031	0.764023	1	0	5.664706e+01
325.565704	1.319491	city	2	1	1.555030	1.555030	0	1	0	0	CorrectCommission	0.910070	0.775214	1	0	5.744118e+01
326.878632	1.306328	city	8	1	1.138436	1.138436	0	1	0	0	CorrectCommission	0.302021	0.789933	1	0	5.823529e+01
328.191559	1.319510	city	3	1	1.537539	1.537539	0	1	0	0	CorrectCommission	0.859180	0.806581	1	0	5.902941e+01
329.511169	1.319711	city	1	1	0.793469	0.793469	0	1	0	0	CorrectCommission	1.305713	0.823353	0	0	5.982353e+01
330.817444	1.292891	city	9	1	1.433679	1.433679	0	1	0	0	CorrectCommission	0.556997	0.838546	0	0	6.061765e+01
332.137024	1.346223	city	3	1	1.799661	1.799661	0	1	0	0	CorrectCommission	1.621831	0.850850	0	0	6.141176e+01
333.463165	1.306109	city	8	1	1.337390	1.337390	0	1	0	0	CorrectCommission	0.276840	0.859517	0	0	6.220588e+01
336.635406	5.038366	break	0	0	0.000000	1.671637	0	0	0	0	ThoughtProbe	1.249341	0.864524	0	63	63
339.801025	1.292869	city	2	1	1.973990	1.973990	0	1	0	0	CorrectCommission	2.129048	0.866539	0	0	6.232500e+01
341.100616	1.306314	city	7	1	1.416040	1.416040	0	1	0	0	CorrectCommission	0.505674	0.866838	0	0	6.165000e+01
342.406891	1.306202	mountain	2	0	0.000000	1.342954	1	0	0	0	CorrectOmission	0.293029	0.867184	0	0	6.097500e+01
343.699768	1.279540	city	6	1	1.353803	1.353803	0	1	0	0	CorrectCommission	0.324594	0.869492	0	0	6.030000e+01
344.985962	1.292884	city	1	1	1.047656	1.047656	0	1	0	0	CorrectCommission	0.566147	0.875545	0	0	5.962500e+01
346.278900	1.292997	city	3	1	0.734186	0.734186	0	1	0	0	CorrectCommission	1.478199	0.886709	0	0	5.895000e+01
347.578583	1.306370	city	10	1	1.419049	1.419049	0	1	0	0	CorrectCommission	0.514429	0.903711	0	0	5.827500e+01
348.891449	1.319350	city	2	1	1.679895	1.679895	0	1	0	0	CorrectCommission	1.273369	0.926482	0	0	5.760000e+01
350.217590	1.332913	city	8	1	1.192589	1.192589	0	1	0	0	CorrectCommission	0.144462	0.954058	0	0	5.692500e+01
351.543915	1.319730	city	7	1	1.612320	1.612320	0	1	0	0	CorrectCommission	1.076759	0.984691	0	0	5.625000e+01
352.883545	1.359533	city	4	1	1.083289	1.083289	0	1	0	0	CorrectCommission	0.462473	1.015936	0	0	5.557500e+01
354.223083	1.319570	city	3	1	1.460068	1.460068	0	1	0	0	CorrectCommission	0.633775	1.044978	0	0	5.490000e+01
355.556000	1.346237	city	7	1	1.798406	1.798406	0	1	0	0	CorrectCommission	1.618179	1.068921	0	0	5.422500e+01
356.875458	1.292722	mountain	3	1	2.129758	2.129758	0	0	1	0	CommissionError	2.582257	1.085138	0	0	5.355000e+01
358.181702	1.319758	city	7	1	1.779322	1.779322	0	1	0	0	CorrectCommission	1.562655	1.091626	0	0	5.287500e+01
359.534607	1.386020	city	2	1	1.275978	1.275978	0	1	0	0	CorrectCommission	0.098160	1.087285	0	0	5.220000e+01
360.880829	1.306426	city	8	1	1.739191	1.739191	0	1	0	0	CorrectCommission	1.445894	1.072041	0	0	5.152500e+01
362.207153	1.346219	mountain	9	1	2.074496	2.074496	0	0	1	0	CommissionError	2.421470	1.046757	0	0	5.085000e+01
363.533356	1.306216	city	2	1	1.529589	1.529589	0	1	0	0	CorrectCommission	0.836049	1.013178	0	0	5.017500e+01
364.846283	1.319593	city	10	1	0.943216	0.943216	0	1	0	0	CorrectCommission	0.870019	0.973700	0	0	4.950000e+01
366.192505	1.372869	city	7	1	1.078741	1.078741	0	1	0	0	CorrectCommission	0.475707	0.931032	0	0	4.882500e+01
367.538666	1.319454	city	2	1	1.172741	1.172741	0	1	0	0	CorrectCommission	0.202209	0.887896	0	0	4.815000e+01
368.844879	1.293005	city	10	1	1.689880	1.689880	0	1	0	0	CorrectCommission	1.302422	0.846747	0	0	4.747500e+01
370.151184	1.319596	city	9	1	1.484554	1.484554	0	1	0	0	CorrectCommission	0.705020	0.809661	1	0	4.680000e+01
371.457428	1.292894	city	6	1	1.137945	1.137945	0	1	0	0	CorrectCommission	0.303450	0.778277	1	0	4.612500e+01
372.757019	1.306249	city	2	1	1.565306	1.565306	0	1	0	0	CorrectCommission	0.939969	0.753791	1	0	4.545000e+01
374.089905	1.359546	city	1	1	1.108158	1.108158	0	1	0	0	CorrectCommission	0.390117	0.737056	1	0	4.477500e+01
375.436066	1.332784	city	8	1	1.648802	1.648802	0	1	0	0	CorrectCommission	1.182903	0.728713	1	0	4.410000e+01
376.775635	1.346375	city	2	1	1.177400	1.177400	0	1	0	0	CorrectCommission	0.188655	0.729293	1	0	4.342500e+01
378.088531	1.279389	city	9	1	1.553203	1.553203	0	1	0	0	CorrectCommission	0.904754	0.739265	1	0	4.275000e+01
379.394653	1.332860	city	5	1	1.344311	1.344311	0	1	0	0	CorrectCommission	0.296978	0.758985	1	0	4.207500e+01
380.720947	1.319744	city	3	1	0.906532	0.906532	0	1	0	0	CorrectCommission	0.976754	0.788586	1	0	4.140000e+01
382.040527	1.319389	city	6	1	1.451870	1.451870	0	1	0	0	CorrectCommission	0.609923	0.827855	0	0	4.072500e+01
383.360107	1.319751	city	9	1	1.679867	1.679867	0	1	0	0	CorrectCommission	1.273288	0.876034	0	0	4.005000e+01
384.686340	1.332735	city	8	1	1.305882	1.305882	0	1	0	0	CorrectCommission	0.185167	0.931675	0	0	3.937500e+01
385.999237	1.293061	city	2	1	1.447806	1.447806	0	1	0	0	CorrectCommission	0.598101	0.992581	0	0	3.870000e+01
387.325470	1.359435	city	3	1	1.115364	1.115364	0	1	0	0	CorrectCommission	0.369150	1.055856	0	0	3.802500e+01
388.658386	1.306364	city	4	1	1.111895	1.111895	0	1	0	0	CorrectCommission	0.379243	1.118124	0	0	3.735000e+01
389.991364	1.359573	city	9	1	1.763056	1.763056	0	1	0	0	CorrectCommission	1.515327	1.175809	0	0	3.667500e+01
394.263184	7.184110	break	0	0	0.000000	2.149121	0	0	0	0	ThoughtProbe	2.638596	1.225517	0	36	36
398.521759	1.333039	city	6	1	2.167336	2.167336	0	1	0	0	CorrectCommission	2.691593	1.264482	0	0	3.673529e+01
399.854706	1.332808	city	5	1	1.714946	1.714946	0	1	0	0	CorrectCommission	1.375351	1.290798	0	0	3.747059e+01
401.194244	1.346316	city	6	1	2.007795	2.007795	0	1	0	0	CorrectCommission	2.227403	1.303620	0	0	3.820588e+01
402.527161	1.319491	city	7	1	1.716554	1.716554	0	1	0	0	CorrectCommission	1.380029	1.303008	0	0	3.894118e+01
403.880035	1.386277	city	3	1	1.123548	1.123548	0	1	0	0	CorrectCommission	0.345340	1.289810	0	0	3.967647e+01
405.226227	1.306078	mountain	8	0	0.000000	1.079469	1	0	0	0	CorrectOmission	0.473586	1.265409	0	0	4.041176e+01
406.525757	1.292986	city	7	1	1.411606	1.411606	0	1	0	0	CorrectCommission	0.492773	1.231471	0	0	4.114706e+01
407.832092	1.319680	city	6	1	1.947241	1.947241	0	1	0	0	CorrectCommission	2.051221	1.189792	0	0	4.188235e+01
409.151642	1.319422	city	9	1	1.979681	1.979681	0	1	0	0	CorrectCommission	2.145606	1.142204	0	0	4.261765e+01
410.471100	1.319529	city	7	1	1.919218	1.919218	0	1	0	0	CorrectCommission	1.969687	1.090640	0	0	4.335294e+01
411.797394	1.333058	city	9	1	1.343306	1.343306	0	1	0	0	CorrectCommission	0.294055	1.037132	0	0	4.408824e+01
413.143707	1.359545	city	4	1	1.823836	1.823836	0	1	0	0	CorrectCommission	1.692169	0.983807	0	0	4.482353e+01
414.503174	1.359383	city	10	1	1.232044	1.232044	0	1	0	0	CorrectCommission	0.029667	0.932737	0	0	4.555882e+01
415.842743	1.319736	city	5	1	1.594524	1.594524	0	1	0	0	CorrectCommission	1.024978	0.885871	0	0	4.629412e+01
417.162292	1.319401	city	4	1	1.198202	1.198202	0	1	0	0	CorrectCommission	0.128129	0.844751	0	0	4.702941e+01
418.475159	1.306323	city	7	1	1.554345	1.554345	0	1	0	0	CorrectCommission	0.908077	0.810372	1	0	4.776471e+01
419.808136	1.359632	city	4	1	1.150062	1.150062	0	1	0	0	CorrectCommission	0.268195	0.782990	1	0	4.850000e+01
421.147675	1.319419	city	3	1	1.286851	1.286851	0	1	0	0	CorrectCommission	0.129795	0.762154	1	0	4.923529e+01
422.453918	1.293076	city	10	1	1.511488	1.511488	0	1	0	0	CorrectCommission	0.783384	0.746695	1	0	4.997059e+01
423.773468	1.346050	city	5	1	1.798944	1.798944	0	1	0	0	CorrectCommission	1.619745	0.734962	1	0	5.070588e+01
425.119629	1.346277	city	9	1	1.267820	1.267820	0	1	0	0	CorrectCommission	0.074425	0.725055	1	0	5.144118e+01
426.445862	1.306175	mountain	10	1	0.719829	0.719829	0	0	1	0	CommissionError	1.519971	0.715153	1	0	5.217647e+01
427.758820	1.319734	city	3	1	1.582799	1.582799	0	1	0	0	CorrectCommission	0.990864	0.703724	1	0	5.291176e+01
429.078461	1.319576	city	4	1	1.101647	1.101647	0	1	0	0	CorrectCommission	0.409060	0.689865	1	0	5.364706e+01
430.384705	1.292896	city	3	1	1.140173	1.140173	0	1	0	0	CorrectCommission	0.296967	0.673388	1	0	5.438235e+01
431.684265	1.306243	city	6	1	1.549541	1.549541	0	1	0	0	CorrectCommission	0.894100	0.654902	1	0	5.511765e+01
432.990509	1.306218	city	9	1	0.839778	0.839778	0	1	0	0	CorrectCommission	1.170975	0.635753	1	0	5.585294e+01
434.310089	1.332914	city	8	1	1.114256	1.114256	0	1	0	0	CorrectCommission	0.372374	0.617871	1	0	5.658824e+01
435.662872	1.372706	city	2	1	0.887278	0.887278	0	1	0	0	CorrectCommission	1.032773	0.603559	1	0	5.732353e+01
437.009064	1.319657	city	3	1	1.403231	1.403231	0	1	0	0	CorrectCommission	0.468408	0.595064	1	0	5.805882e+01
438.335388	1.332960	city	2	1	1.227954	1.227954	0	1	0	0	CorrectCommission	0.041568	0.594324	1	0	5.879412e+01
439.668335	1.332929	city	9	1	1.217217	1.217217	0	1	0	0	CorrectCommission	0.072807	0.602597	1	0	5.952941e+01
441.014465	1.359379	city	2	1	1.274877	1.274877	0	1	0	0	CorrectCommission	0.094958	0.620195	1	0	6.026471e+01
444.646545	5.904760	break	0	0	0.000000	1.401890	0	0	0	0	ThoughtProbe	0.464506	0.646295	1	61	61
448.238770	1.279711	city	5	1	1.444776	1.444776	0	1	0	0	CorrectCommission	0.589284	0.679049	1	0	6.067391e+01
449.578400	1.399534	city	2	1	1.250056	1.250056	0	1	0	0	CorrectCommission	0.022739	0.715686	1	0	6.034783e+01
450.951294	1.346227	city	4	1	1.791752	1.791752	0	1	0	0	CorrectCommission	1.598819	0.752959	1	0	6.002174e+01
452.297424	1.346068	city	10	1	1.243786	1.243786	0	1	0	0	CorrectCommission	0.004499	0.787472	1	0	5.969565e+01
453.623596	1.306243	city	9	1	0.703654	0.703654	0	1	0	0	CorrectCommission	1.567033	0.816311	0	0	5.936957e+01
454.923157	1.292870	mountain	6	1	0.501777	0.501777	0	0	1	0	CommissionError	2.154400	0.837320	0	0	5.904348e+01
456.222778	1.306423	city	3	1	0.769908	0.769908	0	1	0	0	CorrectCommission	1.374263	0.849469	0	0	5.871739e+01
457.535797	1.319563	city	7	1	0.794370	0.794370	0	1	0	0	CorrectCommission	1.303092	0.852909	0	0	5.839130e+01
458.855377	1.319605	city	4	1	1.434999	1.434999	0	1	0	0	CorrectCommission	0.560836	0.848896	0	0	5.806522e+01
460.174927	1.319536	city	7	1	1.116468	1.116468	0	1	0	0	CorrectCommission	0.365939	0.839436	0	0	5.773913e+01
461.481140	1.292881	mountain	6	0	0.000000	1.030042	1	0	0	0	CorrectOmission	0.617396	0.826937	0	0	5.741304e+01
462.787323	1.319450	city	1	1	1.059776	1.059776	0	1	0	0	CorrectCommission	0.530886	0.813753	0	0	5.708696e+01
464.106781	1.319517	city	4	1	1.089720	1.089720	0	1	0	0	CorrectCommission	0.443762	0.801854	1	0	5.676087e+01
465.413025	1.292930	city	6	1	1.658010	1.658010	0	1	0	0	CorrectCommission	1.209694	0.792554	1	0	5.643478e+01
466.732666	1.346364	city	4	1	1.156566	1.156566	0	1	0	0	CorrectCommission	0.249272	0.786392	1	0	5.610870e+01
468.105621	1.399545	city	8	1	1.091137	1.091137	0	1	0	0	CorrectCommission	0.439638	0.783263	1	0	5.578261e+01
469.458496	1.306229	city	3	1	1.770178	1.770178	0	1	0	0	CorrectCommission	1.536050	0.782484	1	0	5.545652e+01
470.751343	1.279443	mountain	5	0	0.000000	1.528747	1	0	0	0	CorrectOmission	0.833600	0.783041	1	0	5.513043e+01
472.050903	1.319708	city	5	1	1.263305	1.263305	0	1	0	0	CorrectCommission	0.061289	0.783875	1	0	5.480435e+01
473.397217	1.372890	city	3	1	1.870312	1.870312	0	1	0	0	CorrectCommission	1.827392	0.784018	1	0	5.447826e+01
474.750031	1.332743	city	2	1	1.403909	1.403909	0	1	0	0	CorrectCommission	0.470379	0.782684	1	0	5.415217e+01
476.096161	1.359532	city	6	1	1.735477	1.735477	0	1	0	0	CorrectCommission	1.435086	0.779445	1	0	5.382609e+01
477.429077	1.306249	city	9	1	1.352994	1.352994	0	1	0	0	CorrectCommission	0.322241	0.774069	1	0	5.350000e+01
478.768646	1.372900	city	3	1	0.998411	0.998411	0	1	0	0	CorrectCommission	0.709428	0.766588	1	0	5.317391e+01
480.174805	1.439408	city	10	1	1.324612	1.324612	0	1	0	0	CorrectCommission	0.239663	0.757100	1	0	5.284783e+01
481.541077	1.293170	city	1	1	1.638588	1.638588	0	1	0	0	CorrectCommission	1.153186	0.745827	1	0	5.252174e+01
482.840790	1.306244	city	5	1	1.375298	1.375298	0	1	0	0	CorrectCommission	0.387136	0.733025	1	0	5.219565e+01
484.167023	1.346222	city	9	1	1.684110	1.684110	0	1	0	0	CorrectCommission	1.285634	0.719101	1	0	5.186957e+01
485.519897	1.359551	city	4	1	1.154718	1.154718	0	1	0	0	CorrectCommission	0.254650	0.704639	1	0	5.154348e+01
486.859467	1.319546	city	8	1	1.700810	1.700810	0	1	0	0	CorrectCommission	1.334221	0.690558	1	0	5.121739e+01
488.192322	1.346173	city	9	1	1.461539	1.461539	0	1	0	0	CorrectCommission	0.638055	0.678145	1	0	5.089130e+01
489.531799	1.332804	city	3	1	0.931743	0.931743	0	1	0	0	CorrectCommission	0.903401	0.669142	1	0	5.056522e+01
490.857971	1.319555	city	2	1	1.480453	1.480453	0	1	0	0	CorrectCommission	0.693087	0.665728	1	0	5.023913e+01
492.230865	1.426241	city	4	1	1.211085	1.211085	0	1	0	0	CorrectCommission	0.090648	0.670462	1	0	4.991304e+01
493.597168	1.306340	mountain	6	0	0.000000	1.291810	1	0	0	0	CorrectOmission	0.144226	0.686167	1	0	4.958696e+01
494.903442	1.306183	city	7	1	1.374675	1.374675	0	1	0	0	CorrectCommission	0.385324	0.715763	1	0	4.926087e+01
496.242920	1.372780	city	8	1	1.111724	1.111724	0	1	0	0	CorrectCommission	0.379741	0.762112	1	0	4.893478e+01
497.589447	1.320274	city	9	1	1.663499	1.663499	0	1	0	0	CorrectCommission	1.225665	0.827822	0	0	4.860870e+01
498.929077	1.358989	city	3	1	1.086711	1.086711	0	1	0	0	CorrectCommission	0.452516	0.914989	0	0	4.828261e+01
500.288269	1.359412	city	1	1	1.364678	1.364678	0	1	0	0	CorrectCommission	0.356236	1.025021	0	0	4.795652e+01
501.627747	1.319564	city	10	1	0.648380	0.648380	0	1	0	0	CorrectCommission	1.727852	1.158365	0	0	4.763043e+01
502.940735	1.306405	city	9	1	1.418352	1.418352	0	1	0	0	CorrectCommission	0.512402	1.314223	0	0	4.730435e+01
504.266968	1.346071	city	5	1	1.011013	1.011013	0	1	0	0	CorrectCommission	0.672762	1.490504	0	0	4.697826e+01
505.593231	1.306399	city	10	1	1.036332	1.036332	0	1	0	0	CorrectCommission	0.599097	1.683690	0	0	4.665217e+01
506.899445	1.306077	city	1	1	1.500276	1.500276	0	1	0	0	CorrectCommission	0.750762	1.888987	0	0	4.632609e+01
511.384827	7.664656	break	0	0	0.000000	1.964220	0	0	0	0	ThoughtProbe	2.100621	2.100621	0	46	46
