onset	duration	trial_type	image_type	Press	ReactionTime	ReactionTime_Interpolated	CorrectOmission	CorrectCommission	CommissionError	OmissionError	response_type	nonsmoothVarianceTimeCourse	VarianceTimeCourse	In_the_Zone	ThoughtProbe	ThoughtProbe_Interpolated
0.652970	1.279552	city	9	1	0.916597	0.916597	0	1	0	0	CorrectCommission	0.980017	0.980017	0	0	67
1.932549	1.279606	city	8	1	0.823171	0.823171	0	1	0	0	CorrectCommission	1.415478	1.066190	0	0	67
3.212089	1.279473	city	5	1	0.647786	0.647786	0	1	0	0	CorrectCommission	2.232959	1.149259	0	0	67
4.498328	1.293005	city	9	1	0.576285	0.576285	0	1	0	0	CorrectCommission	2.566226	1.226297	0	0	67
5.784609	1.279559	city	7	1	0.858165	0.858165	0	1	0	0	CorrectCommission	1.252371	1.294688	0	0	67
7.064190	1.279602	city	10	1	0.872839	0.872839	0	1	0	0	CorrectCommission	1.183976	1.352202	0	0	67
8.343779	1.279574	city	3	1	0.929037	0.929037	0	1	0	0	CorrectCommission	0.922033	1.396938	0	0	67
9.623356	1.279581	city	6	1	0.920747	0.920747	0	1	0	0	CorrectCommission	0.960672	1.427335	0	0	67
10.902925	1.279559	city	4	1	0.967505	0.967505	0	1	0	0	CorrectCommission	0.742730	1.442150	0	0	67
12.182498	1.279585	city	6	1	1.602125	1.602125	0	1	0	0	CorrectCommission	2.215262	1.440548	0	0	67
13.462093	1.279605	mountain	7	0	0.000000	1.803633	1	0	0	0	CorrectOmission	3.154504	1.422165	0	0	67
14.741603	1.279415	mountain	2	0	0.000000	1.682190	1	0	0	0	CorrectOmission	2.588449	1.387324	0	0	67
16.021179	1.279738	city	4	1	1.347951	1.347951	0	1	0	0	CorrectCommission	1.030548	1.337137	0	0	67
17.300827	1.279555	city	2	1	0.911077	0.911077	0	1	0	0	CorrectCommission	1.005746	1.273531	0	0	67
18.580318	1.279427	city	5	1	0.861668	0.861668	0	1	0	0	CorrectCommission	1.236044	1.199124	0	0	67
19.866560	1.293056	city	2	1	0.899920	0.899920	0	1	0	0	CorrectCommission	1.057748	1.117116	0	0	67
21.152889	1.279605	city	8	1	0.857736	0.857736	0	1	0	0	CorrectCommission	1.254373	1.031027	0	0	67
22.432468	1.279551	city	7	1	0.925452	0.925452	0	1	0	0	CorrectCommission	0.938744	0.944423	0	0	67
23.711987	1.279487	city	9	1	1.017450	1.017450	0	1	0	0	CorrectCommission	0.509934	0.860667	0	0	67
24.998241	1.293023	city	2	1	0.981123	0.981123	0	1	0	0	CorrectCommission	0.679256	0.782706	0	0	67
26.284544	1.279580	city	5	1	1.036845	1.036845	0	1	0	0	CorrectCommission	0.419533	0.712895	1	0	67
27.564116	1.279564	city	3	1	1.123884	1.123884	0	1	0	0	CorrectCommission	0.013843	0.652959	1	0	67
28.843615	1.279433	city	7	1	1.177480	1.177480	0	1	0	0	CorrectCommission	0.235973	0.604000	1	0	67
30.123199	1.279737	city	8	1	0.925783	0.925783	0	1	0	0	CorrectCommission	0.937200	0.566563	1	0	67
31.402861	1.279584	city	5	1	1.035425	1.035425	0	1	0	0	CorrectCommission	0.426153	0.540740	1	0	67
32.682365	1.279425	city	10	1	1.083408	1.083408	0	1	0	0	CorrectCommission	0.202504	0.526311	1	0	67
33.961887	1.279625	city	6	1	1.341876	1.341876	0	1	0	0	CorrectCommission	1.002229	0.522821	1	0	67
35.241501	1.279601	city	3	1	1.176936	1.176936	0	1	0	0	CorrectCommission	0.233436	0.529558	1	0	67
36.521049	1.279494	city	5	1	1.023053	1.023053	0	1	0	0	CorrectCommission	0.483819	0.545591	1	0	67
37.800674	1.279752	mountain	10	1	1.141414	1.141414	0	0	1	0	CommissionError	0.067867	0.569650	1	0	67
39.086990	1.292880	city	10	1	1.206092	1.206092	0	1	0	0	CorrectCommission	0.369335	0.600124	1	0	67
40.379868	1.292877	city	2	1	1.080709	1.080709	0	1	0	0	CorrectCommission	0.215082	0.635016	1	0	67
41.672787	1.292958	city	6	1	1.191644	1.191644	0	1	0	0	CorrectCommission	0.301993	0.672043	1	0	67
42.959053	1.279578	city	1	1	1.298749	1.298749	0	1	0	0	CorrectCommission	0.801214	0.708804	1	0	67
44.238621	1.279559	city	5	1	1.507582	1.507582	0	1	0	0	CorrectCommission	1.774595	0.743012	1	0	67
45.551525	1.346250	city	2	1	0.904072	0.904072	0	1	0	0	CorrectCommission	1.038396	0.772707	0	0	67
46.884449	1.319595	city	5	1	0.921037	0.921037	0	1	0	0	CorrectCommission	0.959321	0.796518	0	0	67
48.184017	1.279545	city	6	1	1.403644	1.403644	0	1	0	0	CorrectCommission	1.290132	0.813753	0	0	67
49.463570	1.279560	city	7	1	1.289829	1.289829	0	1	0	0	CorrectCommission	0.759637	0.824429	0	0	67
50.103352	17.807477	break	0	0	0.000000	1.273922	0	0	0	0	ThoughtProbe	0.685495	0.829219	0	67	67
68.557274	1.292890	city	5	1	1.297128	1.297128	0	1	0	0	CorrectCommission	0.793657	0.829271	0	0	6.717647e+01
69.843506	1.279576	city	4	1	1.300650	1.300650	0	1	0	0	CorrectCommission	0.810072	0.825985	0	0	6.735294e+01
71.123100	1.279616	mountain	1	1	1.284098	1.284098	0	0	1	0	CommissionError	0.732922	0.820803	0	0	6.752941e+01
72.402672	1.279528	city	9	1	1.281728	1.281728	0	1	0	0	CorrectCommission	0.721877	0.815025	0	0	6.770588e+01
73.682243	1.279614	city	6	1	1.284232	1.284232	0	1	0	0	CorrectCommission	0.733548	0.809663	0	0	6.788235e+01
74.976753	1.309400	city	4	1	1.314239	1.314239	0	1	0	0	CorrectCommission	0.873414	0.805369	0	0	6.805882e+01
76.269669	1.276435	city	7	1	1.280112	1.280112	0	1	0	0	CorrectCommission	0.714344	0.802436	0	0	6.823529e+01
77.547600	1.279419	city	3	1	1.284820	1.284820	0	1	0	0	CorrectCommission	0.736290	0.800860	0	0	6.841176e+01
78.840416	1.306212	city	10	1	1.313132	1.313132	0	1	0	0	CorrectCommission	0.868254	0.800385	0	0	6.858824e+01
80.133392	1.279744	city	2	1	1.284336	1.284336	0	1	0	0	CorrectCommission	0.734031	0.800634	0	0	6.876471e+01
81.426315	1.306102	city	1	1	1.328064	1.328064	0	1	0	0	CorrectCommission	0.937852	0.801189	0	0	6.894118e+01
82.725891	1.293046	city	7	1	1.297658	1.297658	0	1	0	0	CorrectCommission	0.796128	0.801671	0	0	6.911765e+01
84.018867	1.292917	city	10	1	1.297411	1.297411	0	1	0	0	CorrectCommission	0.794976	0.801795	0	0	6.929412e+01
85.325104	1.319551	city	6	1	1.324105	1.324105	0	1	0	0	CorrectCommission	0.919397	0.801399	0	0	6.947059e+01
86.624611	1.279470	city	9	1	1.284102	1.284102	0	1	0	0	CorrectCommission	0.732943	0.800471	0	0	6.964706e+01
87.904121	1.279542	city	10	1	1.306182	1.306182	0	1	0	0	CorrectCommission	0.835858	0.799102	0	0	6.982353e+01
89.183762	1.279741	city	1	1	1.299816	1.299816	0	1	0	0	CorrectCommission	0.806187	0.797466	0	0	70
90.463425	1.279582	mountain	10	1	1.282252	1.282252	0	0	1	0	CommissionError	0.724319	0.795825	0	0	7.017647e+01
91.743004	1.279583	city	4	1	1.284207	1.284207	0	1	0	0	CorrectCommission	0.733431	0.794505	0	0	7.035294e+01
93.029205	1.292812	city	5	1	1.297431	1.297431	0	1	0	0	CorrectCommission	0.795072	0.793893	0	0	7.052941e+01
94.335442	1.319660	city	9	1	1.324232	1.324232	0	1	0	0	CorrectCommission	0.919989	0.794392	0	0	7.070588e+01
95.634987	1.279430	city	2	1	1.282560	1.282560	0	1	0	0	CorrectCommission	0.725754	0.796423	0	0	7.088235e+01
96.914520	1.279641	city	6	1	1.284302	1.284302	0	1	0	0	CorrectCommission	0.733877	0.800402	0	0	7.105882e+01
98.200836	1.292998	city	2	1	1.300102	1.300102	0	1	0	0	CorrectCommission	0.807519	0.806703	0	0	7.123529e+01
99.487045	1.279412	city	7	1	1.299935	1.299935	0	1	0	0	CorrectCommission	0.806741	0.815609	0	0	7.141176e+01
100.766624	1.279751	city	3	1	1.287078	1.287078	0	1	0	0	CorrectCommission	0.746814	0.827225	0	0	7.158824e+01
102.046196	1.279396	city	1	1	1.284018	1.284018	0	1	0	0	CorrectCommission	0.732552	0.841426	0	0	7.176471e+01
103.339020	1.306253	city	9	1	1.308683	1.308683	0	1	0	0	CorrectCommission	0.847518	0.857792	0	0	7.194118e+01
104.632019	1.279740	city	5	1	1.285182	1.285182	0	1	0	0	CorrectCommission	0.737975	0.875587	0	0	7.211765e+01
105.924995	1.306212	city	6	1	1.310776	1.310776	0	1	0	0	CorrectCommission	0.857274	0.893783	0	0	7.229412e+01
107.224533	1.292867	city	2	1	1.296290	1.296290	0	1	0	0	CorrectCommission	0.789751	0.911114	0	0	7.247059e+01
108.510696	1.279458	city	7	1	1.284037	1.284037	0	1	0	0	CorrectCommission	0.732638	0.926249	0	0	7.264706e+01
109.803558	1.306264	city	9	1	1.308627	1.308627	0	1	0	0	CorrectCommission	0.847255	0.937924	0	0	7.282353e+01
110.456688	18.247311	break	0	1	0.644437	0.644437	0	0	0	0	ThoughtProbe	2.248570	0.945183	0	73	73
129.357117	1.306242	city	6	1	1.335105	1.335105	0	1	0	0	CorrectCommission	0.970669	0.947543	0	0	7.282353e+01
130.663452	1.306411	city	3	1	0.953422	0.953422	0	1	0	0	CorrectCommission	0.808372	0.945231	0	0	7.264706e+01
131.963028	1.292734	city	9	1	1.221011	1.221011	0	1	0	0	CorrectCommission	0.438871	0.939197	0	0	7.247059e+01
133.255844	1.292907	city	2	1	0.925483	0.925483	0	1	0	0	CorrectCommission	0.938598	0.931102	0	0	7.229412e+01
134.542160	1.279734	mountain	4	1	0.609803	0.609803	0	0	1	0	CommissionError	2.409998	0.923175	0	0	7.211765e+01
135.821762	1.279451	city	7	1	1.314160	1.314160	0	1	0	0	CorrectCommission	0.873042	0.917994	0	0	7.194118e+01
137.101334	1.279714	city	10	1	1.141903	1.141903	0	1	0	0	CorrectCommission	0.070145	0.918170	0	0	7.176471e+01
138.380981	1.279569	city	7	1	1.128333	1.128333	0	1	0	0	CorrectCommission	0.006897	0.925978	0	0	7.158824e+01
139.660568	1.279603	city	9	1	0.979137	0.979137	0	1	0	0	CorrectCommission	0.688513	0.942992	0	0	7.141176e+01
140.946732	1.292742	city	4	1	0.824279	0.824279	0	1	0	0	CorrectCommission	1.410314	0.969803	0	0	7.123529e+01
142.239655	1.293081	mountain	5	0	0.000000	1.020403	1	0	0	0	CorrectOmission	0.496170	1.005900	0	0	7.105882e+01
143.525955	1.279549	city	9	1	1.194252	1.194252	0	1	0	0	CorrectCommission	0.314149	1.049651	0	0	7.088235e+01
144.805542	1.279607	city	7	1	0.972571	0.972571	0	1	0	0	CorrectCommission	0.719121	1.098466	0	0	7.070588e+01
146.085052	1.279425	city	3	1	0.890707	0.890707	0	1	0	0	CorrectCommission	1.100689	1.149067	0	0	7.052941e+01
147.371262	1.292982	city	1	1	0.715213	0.715213	0	1	0	0	CorrectCommission	1.918677	1.197912	0	0	7.035294e+01
148.664230	1.292962	city	4	1	0.755939	0.755939	0	1	0	0	CorrectCommission	1.728850	1.241579	0	0	7.017647e+01
149.950516	1.279592	city	7	1	0.557659	0.557659	0	1	0	0	CorrectCommission	2.653044	1.277147	0	0	70
151.230026	1.279437	city	10	1	0.884488	0.884488	0	1	0	0	CorrectCommission	1.129678	1.302435	0	0	6.982353e+01
152.522934	1.306386	city	7	1	0.887660	0.887660	0	1	0	0	CorrectCommission	1.114895	1.316200	0	0	6.964706e+01
153.849213	1.346175	city	6	1	0.922933	0.922933	0	1	0	0	CorrectCommission	0.950485	1.318050	0	0	6.947059e+01
155.175430	1.306267	city	7	1	0.776099	0.776099	0	1	0	0	CorrectCommission	1.634884	1.308447	0	0	6.929412e+01
156.488312	1.319483	city	4	1	1.514359	1.514359	0	1	0	0	CorrectCommission	1.806182	1.288442	0	0	6.911765e+01
157.801224	1.306342	city	2	1	1.359932	1.359932	0	1	0	0	CorrectCommission	1.086391	1.259628	0	0	6.894118e+01
159.100815	1.292844	city	8	1	0.924493	0.924493	0	1	0	0	CorrectCommission	0.943213	1.223954	0	0	6.876471e+01
160.387054	1.279642	city	5	1	0.554441	0.554441	0	1	0	0	CorrectCommission	2.668046	1.183577	0	0	6.858824e+01
161.673355	1.292933	city	8	1	1.159418	1.159418	0	1	0	0	CorrectCommission	0.151783	1.140695	0	0	6.841176e+01
162.966248	1.292881	city	3	1	0.938998	0.938998	0	1	0	0	CorrectCommission	0.875604	1.097529	0	0	6.823529e+01
164.252487	1.279571	city	4	1	1.360130	1.360130	0	1	0	0	CorrectCommission	1.087314	1.056101	0	0	6.805882e+01
165.558716	1.332902	city	5	1	0.970187	0.970187	0	1	0	0	CorrectCommission	0.730229	1.018167	0	0	6.788235e+01
166.864914	1.279482	city	8	1	0.748740	0.748740	0	1	0	0	CorrectCommission	1.762406	0.985069	0	0	6.770588e+01
168.144485	1.279680	city	7	1	1.098449	1.098449	0	1	0	0	CorrectCommission	0.132394	0.957572	0	0	6.752941e+01
169.437363	1.306060	city	2	1	0.902753	0.902753	0	1	0	0	CorrectCommission	1.044543	0.935858	0	0	6.735294e+01
170.736923	1.293063	city	6	1	1.210699	1.210699	0	1	0	0	CorrectCommission	0.390807	0.919362	0	0	6.717647e+01
171.383453	12.915753	break	0	0	0.000000	1.334111	0	0	0	0	ThoughtProbe	0.966037	0.906875	0	67	67
184.938995	1.279568	mountain	7	1	1.305116	1.305116	0	0	1	0	CommissionError	0.830888	0.896577	0	0	6.680000e+01
186.225342	1.293125	city	2	1	1.155839	1.155839	0	1	0	0	CorrectCommission	0.135102	0.886291	0	0	6.660000e+01
187.518250	1.292703	city	9	1	0.928137	0.928137	0	1	0	0	CorrectCommission	0.926227	0.873755	0	0	6.640000e+01
188.811050	1.292904	city	10	1	0.756548	0.756548	0	1	0	0	CorrectCommission	1.726012	0.856929	0	0	6.620000e+01
190.097290	1.279581	city	1	1	0.929916	0.929916	0	1	0	0	CorrectCommission	0.917935	0.834303	0	0	66
191.376801	1.279431	city	8	1	0.558492	0.558492	0	1	0	0	CorrectCommission	2.649162	0.805215	0	0	6.580000e+01
192.676331	1.319638	city	2	1	1.058666	1.058666	0	1	0	0	CorrectCommission	0.317828	0.769841	0	0	6.560000e+01
193.982666	1.293008	city	4	1	1.203199	1.203199	0	1	0	0	CorrectCommission	0.355850	0.729300	1	0	6.540000e+01
195.295593	1.332864	city	9	1	1.042515	1.042515	0	1	0	0	CorrectCommission	0.393108	0.685331	1	0	6.520000e+01
196.608444	1.292845	city	1	1	0.939621	0.939621	0	1	0	0	CorrectCommission	0.872702	0.640063	1	0	65
197.901306	1.292869	city	2	1	1.046822	1.046822	0	1	0	0	CorrectCommission	0.373029	0.595692	1	0	6.480000e+01
199.220917	1.346363	city	8	1	1.062454	1.062454	0	1	0	0	CorrectCommission	0.300171	0.554216	1	0	6.460000e+01
200.547195	1.306183	city	1	1	1.180320	1.180320	0	1	0	0	CorrectCommission	0.249210	0.517178	1	0	6.440000e+01
201.860077	1.319579	city	2	1	1.066768	1.066768	0	1	0	0	CorrectCommission	0.280061	0.485614	1	0	6.420000e+01
203.159668	1.279605	mountain	7	0	0.000000	1.102871	1	0	0	0	CorrectOmission	0.111784	0.460088	1	0	64
204.445923	1.292894	city	9	1	1.099532	1.099532	0	1	0	0	CorrectCommission	0.127348	0.440861	1	0	6.380000e+01
205.738831	1.292925	city	5	1	0.867653	0.867653	0	1	0	0	CorrectCommission	1.208147	0.428082	1	0	6.360000e+01
207.025070	1.279554	city	9	1	1.256712	1.256712	0	1	0	0	CorrectCommission	0.605277	0.421965	1	0	6.340000e+01
208.304642	1.279588	city	8	1	1.036638	1.036638	0	1	0	0	CorrectCommission	0.420500	0.422995	1	0	6.320000e+01
209.590881	1.292897	city	9	1	1.109248	1.109248	0	1	0	0	CorrectCommission	0.082060	0.431855	1	0	63
210.883789	1.292930	city	3	1	1.048891	1.048891	0	1	0	0	CorrectCommission	0.363387	0.449374	1	0	6.280000e+01
212.183289	1.306060	city	6	1	1.023206	1.023206	0	1	0	0	CorrectCommission	0.483106	0.476240	1	0	6.260000e+01
213.502838	1.333051	city	4	1	1.047212	1.047212	0	1	0	0	CorrectCommission	0.371215	0.512725	1	0	6.240000e+01
214.829117	1.319496	city	3	1	1.153233	1.153233	0	1	0	0	CorrectCommission	0.122956	0.558377	1	0	6.220000e+01
216.135300	1.292855	mountain	6	0	0.000000	1.132968	1	0	0	0	CorrectOmission	0.028499	0.611746	1	0	62
217.434860	1.306283	city	1	1	1.106532	1.106532	0	1	0	0	CorrectCommission	0.094721	0.670285	1	0	6.180000e+01
218.734497	1.292992	city	4	1	1.194041	1.194041	0	1	0	0	CorrectCommission	0.313164	0.730493	1	0	6.160000e+01
220.040787	1.319568	city	9	1	0.945842	0.945842	0	1	0	0	CorrectCommission	0.843703	0.788122	0	0	6.140000e+01
221.347015	1.292906	city	1	1	0.908427	0.908427	0	1	0	0	CorrectCommission	1.018096	0.838757	0	0	6.120000e+01
222.659927	1.332914	city	10	1	0.772757	0.772757	0	1	0	0	CorrectCommission	1.650462	0.878337	0	0	61
223.972824	1.292891	city	4	1	1.592647	1.592647	0	1	0	0	CorrectCommission	2.171087	0.903746	0	0	6.080000e+01
225.279022	1.319485	city	5	1	1.756738	1.756738	0	1	0	0	CorrectCommission	2.935921	0.913238	0	0	6.060000e+01
226.585251	1.292984	city	2	1	1.221391	1.221391	0	1	0	0	CorrectCommission	0.440641	0.906698	0	0	6.040000e+01
227.891525	1.319569	city	5	1	1.061119	1.061119	0	1	0	0	CorrectCommission	0.306390	0.885726	0	0	6.020000e+01
229.217758	1.332893	city	6	1	1.282657	1.282657	0	1	0	0	CorrectCommission	0.726209	0.853283	0	0	60
230.543961	1.319499	city	7	1	1.220288	1.220288	0	1	0	0	CorrectCommission	0.435502	0.813328	0	0	5.980000e+01
231.850204	1.293003	city	5	1	1.404835	1.404835	0	1	0	0	CorrectCommission	1.295687	0.770356	0	0	5.960000e+01
233.136414	1.279396	city	4	1	1.338965	1.338965	0	1	0	0	CorrectCommission	0.988664	0.728778	1	0	5.940000e+01
234.449234	1.346264	city	2	1	1.067736	1.067736	0	1	0	0	CorrectCommission	0.275552	0.692463	1	0	5.920000e+01
235.122375	8.957191	break	0	0	0.000000	1.055411	0	0	0	0	ThoughtProbe	0.332998	0.664376	1	59	59
244.765991	1.372876	city	10	1	1.123543	1.123543	0	1	0	0	CorrectCommission	0.015430	0.646303	1	0	5.789130e+01
246.105515	1.306141	city	5	1	1.093685	1.093685	0	1	0	0	CorrectCommission	0.154602	0.638814	1	0	5.678261e+01
247.418411	1.319662	city	6	1	1.167692	1.167692	0	1	0	0	CorrectCommission	0.190351	0.641298	1	0	5.567391e+01
248.744614	1.332747	city	3	1	1.105583	1.105583	0	1	0	0	CorrectCommission	0.099145	0.652245	1	0	5.456522e+01
250.084167	1.346365	city	9	1	0.980543	0.980543	0	1	0	0	CorrectCommission	0.681960	0.669612	1	0	5.345652e+01
251.397141	1.279565	city	7	1	0.661387	0.661387	0	1	0	0	CorrectCommission	2.169565	0.691219	1	0	5.234783e+01
252.690048	1.306260	city	5	1	0.980608	0.980608	0	1	0	0	CorrectCommission	0.681659	0.715070	1	0	5.123913e+01
253.989624	1.292890	city	1	1	0.878803	0.878803	0	1	0	0	CorrectCommission	1.156179	0.739701	1	0	5.013043e+01
255.302444	1.332753	city	8	1	1.034059	1.034059	0	1	0	0	CorrectCommission	0.432520	0.764181	0	0	4.902174e+01
256.608673	1.279721	mountain	9	1	0.859825	0.859825	0	0	1	0	CommissionError	1.244635	0.788115	0	0	4.791304e+01
257.901642	1.306232	mountain	10	0	0.000000	1.003617	1	0	0	0	CorrectOmission	0.574414	0.811380	0	0	4.680435e+01
259.201172	1.292774	city	4	1	1.156312	1.156312	0	1	0	0	CorrectCommission	0.137306	0.833944	0	0	4.569565e+01
260.494080	1.293048	city	9	1	1.008787	1.008787	0	1	0	0	CorrectCommission	0.550312	0.855597	0	0	4.458696e+01
261.780304	1.279437	city	4	1	1.046191	1.046191	0	1	0	0	CorrectCommission	0.375972	0.875749	0	0	4.347826e+01
263.079895	1.319705	city	8	1	0.979978	0.979978	0	1	0	0	CorrectCommission	0.684594	0.893495	0	0	4.236957e+01
264.379517	1.279577	city	1	1	1.677239	1.677239	0	1	0	0	CorrectCommission	2.565372	0.907639	0	0	4.126087e+01
265.672363	1.306099	city	3	1	1.436098	1.436098	0	1	0	0	CorrectCommission	1.441405	0.916857	0	0	4.015217e+01
266.978546	1.306241	city	2	1	1.166788	1.166788	0	1	0	0	CorrectCommission	0.186135	0.920044	0	0	3.904348e+01
268.278015	1.292733	city	4	1	1.007449	1.007449	0	1	0	0	CorrectCommission	0.556550	0.916481	0	0	3.793478e+01
269.597656	1.346530	city	7	1	0.877084	0.877084	0	1	0	0	CorrectCommission	1.164186	0.906019	0	0	3.682609e+01
270.917389	1.292935	mountain	2	1	0.644257	0.644257	0	0	1	0	CommissionError	2.249408	0.889206	0	0	3.571739e+01
272.223633	1.319539	city	8	1	1.289194	1.289194	0	1	0	0	CorrectCommission	0.756678	0.867265	0	0	3.460870e+01
273.523102	1.279451	city	5	1	1.047532	1.047532	0	1	0	0	CorrectCommission	0.369721	0.842044	0	0	3.350000e+01
274.802643	1.279576	mountain	8	0	0.000000	1.246959	1	0	0	0	CorrectOmission	0.559816	0.815702	0	0	3.239130e+01
276.088898	1.292973	city	6	1	1.448168	1.448168	0	1	0	0	CorrectCommission	1.497665	0.790444	0	0	3.128261e+01
277.395172	1.319541	city	4	1	1.211856	1.211856	0	1	0	0	CorrectCommission	0.396199	0.768185	0	0	3.017391e+01
278.714691	1.319498	city	2	1	1.156626	1.156626	0	1	0	0	CorrectCommission	0.138772	0.750307	0	0	2.906522e+01
280.014252	1.279623	city	4	1	1.162726	1.162726	0	1	0	0	CorrectCommission	0.167202	0.737335	1	0	2.795652e+01
281.300568	1.293037	city	9	1	0.897752	0.897752	0	1	0	0	CorrectCommission	1.067853	0.728926	1	0	2.684783e+01
282.600128	1.306090	city	4	1	1.077464	1.077464	0	1	0	0	CorrectCommission	0.230209	0.723802	1	0	2.573913e+01
283.899689	1.293038	city	2	1	0.985785	0.985785	0	1	0	0	CorrectCommission	0.657528	0.720061	1	0	2.463043e+01
285.186005	1.279572	city	10	1	0.888873	0.888873	0	1	0	0	CorrectCommission	1.109240	0.715388	1	0	2.352174e+01
286.485596	1.319604	city	3	1	1.046513	1.046513	0	1	0	0	CorrectCommission	0.374471	0.707539	1	0	2.241304e+01
287.798492	1.306220	city	8	1	0.880802	0.880802	0	1	0	0	CorrectCommission	1.146858	0.694743	1	0	2.130435e+01
289.104675	1.306147	city	10	1	0.837657	0.837657	0	1	0	0	CorrectCommission	1.347959	0.676057	1	0	2.019565e+01
290.424194	1.332844	city	8	1	0.853251	0.853251	0	1	0	0	CorrectCommission	1.275276	0.651660	1	0	1.908696e+01
291.763794	1.346377	city	1	1	0.915138	0.915138	0	1	0	0	CorrectCommission	0.986818	0.622951	1	0	1.797826e+01
293.096680	1.319390	city	8	1	1.020006	1.020006	0	1	0	0	CorrectCommission	0.498021	0.592360	1	0	1.686957e+01
294.409576	1.306396	city	5	1	1.034830	1.034830	0	1	0	0	CorrectCommission	0.428928	0.563094	1	0	1.576087e+01
295.702576	1.279596	city	7	1	1.124488	1.124488	0	1	0	0	CorrectCommission	0.011028	0.538687	1	0	1.465217e+01
297.015442	1.346132	city	3	1	1.115574	1.115574	0	1	0	0	CorrectCommission	0.052574	0.522454	1	0	1.354348e+01
298.348267	1.319558	city	5	1	1.187453	1.187453	0	1	0	0	CorrectCommission	0.282456	0.516976	1	0	1.243478e+01
299.674561	1.333035	city	8	1	1.113577	1.113577	0	1	0	0	CorrectCommission	0.061883	0.523700	1	0	1.132609e+01
300.994171	1.306178	city	7	1	1.115489	1.115489	0	1	0	0	CorrectCommission	0.052972	0.542719	1	0	1.021739e+01
302.287048	1.279571	city	5	1	1.142474	1.142474	0	1	0	0	CorrectCommission	0.072806	0.572764	1	0	9.108696e+00
306.345703	6.837727	break	0	0	0.000000	1.228571	0	0	0	0	ThoughtProbe	0.474108	0.611365	1	8	8
310.431030	1.332937	city	4	1	1.154574	1.154574	0	1	0	0	CorrectCommission	0.129206	0.655207	1	0	9.900000e+00
311.743866	1.292758	city	1	1	0.701277	0.701277	0	1	0	0	CorrectCommission	1.983632	0.700665	1	0	1.180000e+01
313.050110	1.319701	city	4	1	1.018862	1.018862	0	1	0	0	CorrectCommission	0.503356	0.744232	1	0	1.370000e+01
314.356415	1.292909	city	1	1	0.855861	0.855861	0	1	0	0	CorrectCommission	1.263108	0.783099	0	0	1.560000e+01
315.655914	1.306097	city	6	1	0.836096	0.836096	0	1	0	0	CorrectCommission	1.355234	0.815338	0	0	1.750000e+01
316.968811	1.319684	mountain	10	1	0.678682	0.678682	0	0	1	0	CommissionError	2.088949	0.840115	0	0	1.940000e+01
318.288361	1.319440	city	7	1	1.200729	1.200729	0	1	0	0	CorrectCommission	0.344337	0.857583	0	0	2.130000e+01
319.587952	1.279747	city	3	1	1.046725	1.046725	0	1	0	0	CorrectCommission	0.373485	0.868689	0	0	2.320000e+01
320.867615	1.279557	mountain	4	1	1.198853	1.198853	0	0	1	0	CommissionError	0.335592	0.874761	0	0	2.510000e+01
322.153809	1.292842	city	4	1	1.464601	1.464601	0	1	0	0	CorrectCommission	1.574256	0.877158	0	0	27
323.453369	1.306244	city	6	1	1.006697	1.006697	0	1	0	0	CorrectCommission	0.560058	0.876932	0	0	2.890000e+01
324.766296	1.319622	city	8	1	1.111845	1.111845	0	1	0	0	CorrectCommission	0.069955	0.874713	0	0	3.080000e+01
326.079224	1.306246	city	5	1	0.900801	0.900801	0	1	0	0	CorrectCommission	1.053642	0.870600	0	0	3.270000e+01
327.405457	1.346221	city	10	1	0.888211	0.888211	0	1	0	0	CorrectCommission	1.112323	0.864292	0	0	3.460000e+01
328.738281	1.319403	city	2	1	1.377105	1.377105	0	1	0	0	CorrectCommission	1.166432	0.855242	0	0	3.650000e+01
330.071167	1.346404	city	4	1	1.479787	1.479787	0	1	0	0	CorrectCommission	1.645042	0.842949	0	0	3.840000e+01
331.417480	1.346210	city	8	1	1.147092	1.147092	0	1	0	0	CorrectCommission	0.094332	0.827158	0	0	4.030000e+01
332.736969	1.292756	city	4	1	1.379311	1.379311	0	1	0	0	CorrectCommission	1.176715	0.808070	0	0	4.220000e+01
334.036469	1.306273	city	2	1	1.339909	1.339909	0	1	0	0	CorrectCommission	0.993061	0.786336	0	0	4.410000e+01
335.329468	1.279706	city	4	1	1.383713	1.383713	0	1	0	0	CorrectCommission	1.197234	0.763082	0	0	46
336.628967	1.319304	city	7	1	1.290110	1.290110	0	1	0	0	CorrectCommission	0.760948	0.739725	1	0	4.790000e+01
337.941803	1.306335	city	10	1	1.164303	1.164303	0	1	0	0	CorrectCommission	0.174553	0.717781	1	0	4.980000e+01
339.261414	1.332909	city	2	1	1.089076	1.089076	0	1	0	0	CorrectCommission	0.176084	0.698649	1	0	5.170000e+01
340.594391	1.333067	city	3	1	1.050261	1.050261	0	1	0	0	CorrectCommission	0.357000	0.683377	1	0	5.360000e+01
341.914032	1.306202	city	2	1	1.148454	1.148454	0	1	0	0	CorrectCommission	0.100680	0.672592	1	0	5.550000e+01
343.213593	1.292914	mountain	8	0	0.000000	1.379717	1	0	0	0	CorrectOmission	1.178610	0.666453	1	0	5.740000e+01
344.506500	1.292895	city	9	1	1.422045	1.422045	0	1	0	0	CorrectCommission	1.375902	0.664717	1	0	5.930000e+01
345.812714	1.319508	city	6	1	0.953432	0.953432	0	1	0	0	CorrectCommission	0.808326	0.666819	1	0	6.120000e+01
347.125519	1.306152	city	1	1	1.220523	1.220523	0	1	0	0	CorrectCommission	0.436597	0.672117	1	0	6.310000e+01
348.458466	1.359718	city	9	1	1.133218	1.133218	0	1	0	0	CorrectCommission	0.029662	0.680010	1	0	65
349.784760	1.292878	city	6	1	1.085747	1.085747	0	1	0	0	CorrectCommission	0.191602	0.690091	1	0	6.690000e+01
351.071014	1.279636	city	10	1	1.092088	1.092088	0	1	0	0	CorrectCommission	0.162046	0.702260	1	0	6.880000e+01
352.350616	1.279532	city	6	1	1.710804	1.710804	0	1	0	0	CorrectCommission	2.721823	0.716846	1	0	7.070000e+01
353.663483	1.346236	city	1	1	1.219216	1.219216	0	1	0	0	CorrectCommission	0.430507	0.734525	1	0	7.260000e+01
354.983093	1.292966	city	2	1	1.298322	1.298322	0	1	0	0	CorrectCommission	0.799220	0.756400	0	0	7.450000e+01
356.276001	1.292862	city	1	1	0.978627	0.978627	0	1	0	0	CorrectCommission	0.690890	0.783588	0	0	7.640000e+01
357.588806	1.332729	city	3	1	1.057400	1.057400	0	1	0	0	CorrectCommission	0.323728	0.817042	0	0	7.830000e+01
358.908173	1.306037	city	1	1	0.999388	0.999388	0	1	0	0	CorrectCommission	0.594124	0.857219	0	0	8.020000e+01
360.227814	1.333252	city	2	1	0.983146	0.983146	0	1	0	0	CorrectCommission	0.669831	0.903785	0	0	8.210000e+01
363.793427	5.797928	break	0	0	0.000000	1.016212	0	0	0	0	ThoughtProbe	0.515705	0.955392	0	84	84
367.345581	1.306402	city	7	1	1.027929	1.027929	0	1	0	0	CorrectCommission	0.461092	1.009668	0	0	8.239130e+01
368.658508	1.319436	city	5	1	0.947638	0.947638	0	1	0	0	CorrectCommission	0.835334	1.063327	0	0	8.078261e+01
369.958038	1.279646	city	3	1	1.432945	1.432945	0	1	0	0	CorrectCommission	1.426706	1.112507	0	0	7.917391e+01
371.257629	1.319534	city	2	1	1.419805	1.419805	0	1	0	0	CorrectCommission	1.365463	1.153232	0	0	7.756522e+01
372.590546	1.346294	city	4	1	1.463110	1.463110	0	1	0	0	CorrectCommission	1.567310	1.181938	0	0	7.595652e+01
373.930176	1.332932	city	1	1	1.797494	1.797494	0	1	0	0	CorrectCommission	3.125888	1.195907	0	0	7.434783e+01
375.256409	1.319536	city	2	1	1.420229	1.420229	0	1	0	0	CorrectCommission	1.367439	1.193612	0	0	7.273913e+01
376.575958	1.319587	mountain	7	0	0.000000	1.466665	1	0	0	0	CorrectOmission	1.583877	1.174932	0	0	7.113043e+01
377.888855	1.306199	city	2	1	1.538957	1.538957	0	1	0	0	CorrectCommission	1.920833	1.140977	0	0	6.952174e+01
379.208435	1.332955	city	6	1	1.239261	1.239261	0	1	0	0	CorrectCommission	0.523937	1.093896	0	0	6.791304e+01
380.528015	1.306211	city	8	1	1.072686	1.072686	0	1	0	0	CorrectCommission	0.252479	1.036549	0	0	6.630435e+01
381.840851	1.319468	city	7	1	1.211357	1.211357	0	1	0	0	CorrectCommission	0.393877	0.972064	0	0	6.469565e+01
383.140411	1.279659	city	1	1	1.077657	1.077657	0	1	0	0	CorrectCommission	0.229307	0.903513	0	0	6.308696e+01
384.426697	1.292910	city	5	1	1.756923	1.756923	0	1	0	0	CorrectCommission	2.936785	0.833702	0	0	6.147826e+01
385.732819	1.319315	city	7	1	1.291978	1.291978	0	1	0	0	CorrectCommission	0.769652	0.764929	0	0	5.986957e+01
387.059021	1.333140	mountain	10	1	1.126274	1.126274	0	0	1	0	CommissionError	0.002700	0.699150	1	0	5.826087e+01
388.365387	1.279584	city	2	1	1.019054	1.019054	0	1	0	0	CorrectCommission	0.502459	0.637839	1	0	5.665217e+01
389.658295	1.306242	city	3	1	1.200189	1.200189	0	1	0	0	CorrectCommission	0.341820	0.582066	1	0	5.504348e+01
390.971191	1.319542	city	10	1	1.069059	1.069059	0	1	0	0	CorrectCommission	0.269385	0.532542	1	0	5.343478e+01
392.290680	1.319423	mountain	10	1	1.272985	1.272985	0	0	1	0	CommissionError	0.681128	0.489708	1	0	5.182609e+01
393.610260	1.319742	city	10	1	1.182387	1.182387	0	1	0	0	CorrectCommission	0.258842	0.453745	1	0	5.021739e+01
394.909882	1.279479	city	1	1	1.155320	1.155320	0	1	0	0	CorrectCommission	0.132682	0.424679	1	0	4.860870e+01
396.216125	1.333007	city	10	1	1.205475	1.205475	0	1	0	0	CorrectCommission	0.366459	0.402453	1	0	47
397.542389	1.319527	city	3	1	1.230074	1.230074	0	1	0	0	CorrectCommission	0.481115	0.387017	1	0	4.539130e+01
398.868530	1.332776	city	10	1	1.130305	1.130305	0	1	0	0	CorrectCommission	0.016086	0.378383	1	0	4.378261e+01
400.234680	1.399507	city	7	1	1.204021	1.204021	0	1	0	0	CorrectCommission	0.359680	0.376713	1	0	4.217391e+01
401.607635	1.346387	city	4	1	0.976207	0.976207	0	1	0	0	CorrectCommission	0.702170	0.382258	1	0	4.056522e+01
402.953888	1.346129	city	2	1	1.023852	1.023852	0	1	0	0	CorrectCommission	0.480098	0.395302	1	0	3.895652e+01
404.293457	1.333013	city	4	1	1.140678	1.140678	0	1	0	0	CorrectCommission	0.064434	0.416087	1	0	3.734783e+01
405.619751	1.319568	city	6	1	1.210843	1.210843	0	1	0	0	CorrectCommission	0.391479	0.444604	1	0	3.573913e+01
406.932648	1.306210	city	8	1	1.048193	1.048193	0	1	0	0	CorrectCommission	0.366640	0.480382	1	0	3.413043e+01
408.245544	1.319598	city	3	1	1.130842	1.130842	0	1	0	0	CorrectCommission	0.018590	0.522388	1	0	3.252174e+01
409.571777	1.332890	city	1	1	1.096040	1.096040	0	1	0	0	CorrectCommission	0.143622	0.568922	1	0	3.091304e+01
410.904602	1.332723	city	2	1	1.261979	1.261979	0	1	0	0	CorrectCommission	0.629828	0.617669	1	0	2.930435e+01
412.230804	1.319712	city	3	1	1.103926	1.103926	0	1	0	0	CorrectCommission	0.106868	0.665885	1	0	2.769565e+01
413.537140	1.292964	mountain	3	1	0.995505	0.995505	0	0	1	0	CommissionError	0.612223	0.710699	1	0	2.608696e+01
414.829987	1.292720	city	9	1	1.563934	1.563934	0	1	0	0	CorrectCommission	2.037255	0.749520	0	0	2.447826e+01
416.136261	1.319820	city	6	1	0.967750	0.967750	0	1	0	0	CorrectCommission	0.741588	0.780397	0	0	2.286957e+01
417.469238	1.346122	city	3	1	0.636471	0.636471	0	1	0	0	CorrectCommission	2.285696	0.802344	0	0	2.126087e+01
418.822052	1.359506	city	2	1	0.819274	0.819274	0	1	0	0	CorrectCommission	1.433643	0.815355	0	0	1.965217e+01
420.154846	1.306130	city	4	1	1.036644	1.036644	0	1	0	0	CorrectCommission	0.420470	0.820436	0	0	1.804348e+01
421.474457	1.333041	city	6	1	1.086817	1.086817	0	1	0	0	CorrectCommission	0.186611	0.819284	0	0	1.643478e+01
422.780670	1.279408	city	4	1	1.327895	1.327895	0	1	0	0	CorrectCommission	0.937064	0.813895	0	0	1.482609e+01
424.100250	1.359736	city	1	1	1.060505	1.060505	0	1	0	0	CorrectCommission	0.309253	0.806121	0	0	1.321739e+01
425.439880	1.319540	city	5	1	0.935350	0.935350	0	1	0	0	CorrectCommission	0.892608	0.797342	0	0	1.160870e+01
429.525116	6.850926	break	0	0	0.000000	1.138646	0	0	0	0	ThoughtProbe	0.054964	0.788184	0	10	10
433.643768	1.386384	city	7	1	1.275103	1.275103	0	1	0	0	CorrectCommission	0.691000	0.778521	0	0	1.132353e+01
435.010071	1.346204	city	6	1	0.949434	0.949434	0	1	0	0	CorrectCommission	0.826964	0.767537	0	0	1.264706e+01
436.329559	1.292814	city	3	1	0.869540	0.869540	0	1	0	0	CorrectCommission	1.199352	0.754036	0	0	1.397059e+01
437.629089	1.306195	city	10	1	0.890228	0.890228	0	1	0	0	CorrectCommission	1.102923	0.736795	1	0	1.529412e+01
438.948700	1.333033	city	1	1	0.848924	0.848924	0	1	0	0	CorrectCommission	1.295445	0.714915	1	0	1.661765e+01
440.268280	1.306136	city	3	1	0.943754	0.943754	0	1	0	0	CorrectCommission	0.853434	0.688115	1	0	1.794118e+01
441.587860	1.333009	mountain	9	1	0.890228	0.890228	0	0	1	0	CommissionError	1.102925	0.656844	1	0	1.926471e+01
442.940704	1.372732	city	3	1	1.181746	1.181746	0	1	0	0	CorrectCommission	0.255856	0.622302	1	0	2.058824e+01
444.280273	1.306376	city	6	1	1.210028	1.210028	0	1	0	0	CorrectCommission	0.387682	0.586337	1	0	2.191176e+01
445.606567	1.346218	mountain	9	1	1.085346	1.085346	0	0	1	0	CommissionError	0.193467	0.551201	1	0	2.323529e+01
446.939484	1.319599	city	5	1	1.249424	1.249424	0	1	0	0	CorrectCommission	0.571309	0.519333	1	0	2.455882e+01
448.258972	1.319396	city	2	1	1.234835	1.234835	0	1	0	0	CorrectCommission	0.503306	0.493072	1	0	2.588235e+01
449.571869	1.306376	city	5	1	1.101239	1.101239	0	1	0	0	CorrectCommission	0.119389	0.474425	1	0	2.720588e+01
450.898163	1.346223	city	7	1	1.169724	1.169724	0	1	0	0	CorrectCommission	0.199823	0.464928	1	0	2.852941e+01
452.231049	1.319569	city	3	1	1.035954	1.035954	0	1	0	0	CorrectCommission	0.423687	0.465452	1	0	2.985294e+01
453.550598	1.319544	city	2	1	1.063876	1.063876	0	1	0	0	CorrectCommission	0.293540	0.476148	1	0	3.117647e+01
454.890167	1.359570	city	1	1	1.055263	1.055263	0	1	0	0	CorrectCommission	0.333688	0.496419	1	0	3.250000e+01
456.243011	1.346090	city	9	1	1.094432	1.094432	0	1	0	0	CorrectCommission	0.151120	0.524904	1	0	3.382353e+01
457.555847	1.279579	city	6	1	0.934282	0.934282	0	1	0	0	CorrectCommission	0.897588	0.559542	1	0	3.514706e+01
458.848816	1.306368	city	2	1	1.004355	1.004355	0	1	0	0	CorrectCommission	0.570973	0.597671	1	0	3.647059e+01
460.155121	1.306241	city	7	1	1.050189	1.050189	0	1	0	0	CorrectCommission	0.357339	0.636262	1	0	3.779412e+01
461.454620	1.292804	city	6	1	1.113853	1.113853	0	1	0	0	CorrectCommission	0.060597	0.672183	1	0	3.911765e+01
462.774200	1.346309	city	4	1	1.233669	1.233669	0	1	0	0	CorrectCommission	0.497870	0.702508	1	0	4.044118e+01
464.100494	1.306272	city	10	1	1.004881	1.004881	0	1	0	0	CorrectCommission	0.568519	0.724885	1	0	4.176471e+01
465.393402	1.279566	city	5	1	1.782638	1.782638	0	1	0	0	CorrectCommission	3.056643	0.737897	1	0	4.308824e+01
466.699554	1.332759	city	7	1	1.503182	1.503182	0	1	0	0	CorrectCommission	1.754084	0.741221	1	0	4.441176e+01
468.019135	1.306387	city	3	1	0.876465	0.876465	0	1	0	0	CorrectCommission	1.167072	0.735784	1	0	4.573529e+01
469.345428	1.346224	city	5	1	1.161879	1.161879	0	1	0	0	CorrectCommission	0.163254	0.723557	1	0	4.705882e+01
470.684967	1.332818	city	9	1	1.075872	1.075872	0	1	0	0	CorrectCommission	0.237630	0.707238	1	0	4.838235e+01
472.024506	1.346286	city	5	1	1.098947	1.098947	0	1	0	0	CorrectCommission	0.130072	0.689789	1	0	4.970588e+01
473.350739	1.306144	city	1	1	1.065420	1.065420	0	1	0	0	CorrectCommission	0.286345	0.673979	1	0	5.102941e+01
474.670227	1.332871	city	6	1	1.181977	1.181977	0	1	0	0	CorrectCommission	0.256931	0.661980	1	0	5.235294e+01
475.989838	1.306354	city	8	1	1.211586	1.211586	0	1	0	0	CorrectCommission	0.394943	0.655084	1	0	5.367647e+01
476.643036	11.129535	break	0	0	0.000000	1.317899	0	0	0	0	ThoughtProbe	0.890472	0.653603	1	55	55
488.432434	1.319713	city	7	1	1.296841	1.296841	0	1	0	0	CorrectCommission	0.792319	0.656936	1	0	5.389130e+01
489.765381	1.346226	city	10	1	0.944338	0.944338	0	1	0	0	CorrectCommission	0.850714	0.663765	1	0	5.278261e+01
491.111542	1.346054	mountain	6	1	1.035451	1.035451	0	0	1	0	CommissionError	0.426032	0.672313	1	0	5.167391e+01
492.431061	1.292986	city	9	1	1.330331	1.330331	0	1	0	0	CorrectCommission	0.948416	0.680644	1	0	5.056522e+01
493.744049	1.333002	city	1	1	1.189172	1.189172	0	1	0	0	CorrectCommission	0.290468	0.686875	1	0	4.945652e+01
495.063568	1.306071	city	10	1	1.382420	1.382420	0	1	0	0	CorrectCommission	1.191207	0.689460	1	0	4.834783e+01
496.396484	1.359717	city	4	1	1.392193	1.392193	0	1	0	0	CorrectCommission	1.236759	0.687251	1	0	4.723913e+01
497.736115	1.319557	city	5	1	1.030723	1.030723	0	1	0	0	CorrectCommission	0.448070	0.679662	1	0	4.613043e+01
499.049011	1.306230	city	8	1	1.177540	1.177540	0	1	0	0	CorrectCommission	0.236253	0.666706	1	0	4.502174e+01
500.348572	1.292904	city	3	1	1.356625	1.356625	0	1	0	0	CorrectCommission	1.070977	0.648919	1	0	4.391304e+01
501.701385	1.412699	city	4	1	1.384760	1.384760	0	1	0	0	CorrectCommission	1.202116	0.627280	1	0	4.280435e+01
503.060913	1.306375	city	2	1	1.059630	1.059630	0	1	0	0	CorrectCommission	0.313331	0.603167	1	0	4.169565e+01
504.387238	1.346271	city	5	1	0.982991	0.982991	0	1	0	0	CorrectCommission	0.670549	0.578186	1	0	4.058696e+01
505.733398	1.346080	city	1	1	0.981968	0.981968	0	1	0	0	CorrectCommission	0.675317	0.554019	1	0	3.947826e+01
507.092957	1.373021	city	3	1	1.104437	1.104437	0	1	0	0	CorrectCommission	0.104484	0.532281	1	0	3.836957e+01
508.452576	1.346201	mountain	6	1	1.135613	1.135613	0	0	1	0	CommissionError	0.040829	0.514367	1	0	3.726087e+01
509.765472	1.279586	city	2	1	1.294217	1.294217	0	1	0	0	CorrectCommission	0.780088	0.501267	1	0	3.615217e+01
511.065033	1.319581	mountain	1	1	1.221354	1.221354	0	0	1	0	CommissionError	0.440473	0.493473	1	0	3.504348e+01
512.371216	1.292744	city	9	1	1.058039	1.058039	0	1	0	0	CorrectCommission	0.320748	0.490961	1	0	3.393478e+01
513.684082	1.332965	city	6	1	1.163222	1.163222	0	1	0	0	CorrectCommission	0.169516	0.493141	1	0	3.282609e+01
515.023621	1.346163	city	3	1	1.116538	1.116538	0	1	0	0	CorrectCommission	0.048080	0.498955	1	0	3.171739e+01
516.349854	1.306245	mountain	2	0	0.000000	1.286606	1	0	0	0	CorrectOmission	0.744612	0.507010	1	0	3.060870e+01
517.642822	1.279702	city	9	1	1.358511	1.358511	0	1	0	0	CorrectCommission	1.079765	0.515730	1	0	2.950000e+01
518.949036	1.332820	city	2	1	1.017340	1.017340	0	1	0	0	CorrectCommission	0.510447	0.523598	1	0	2.839130e+01
520.275208	1.319491	city	9	1	1.235765	1.235765	0	1	0	0	CorrectCommission	0.507644	0.529343	1	0	2.728261e+01
521.594849	1.319722	city	2	1	1.105973	1.105973	0	1	0	0	CorrectCommission	0.097325	0.532086	1	0	2.617391e+01
522.914429	1.319424	city	9	1	1.249566	1.249566	0	1	0	0	CorrectCommission	0.571971	0.531511	1	0	2.506522e+01
524.220581	1.292886	city	7	1	1.495254	1.495254	0	1	0	0	CorrectCommission	1.717133	0.527857	1	0	2.395652e+01
525.560181	1.386320	city	2	1	1.310543	1.310543	0	1	0	0	CorrectCommission	0.856184	0.521873	1	0	2.284783e+01
526.919800	1.332960	city	3	1	1.160912	1.160912	0	1	0	0	CorrectCommission	0.158749	0.514718	1	0	2.173913e+01
528.246033	1.319550	city	1	1	1.137342	1.137342	0	1	0	0	CorrectCommission	0.048886	0.507723	1	0	2.063043e+01
529.565613	1.319569	city	3	1	1.039712	1.039712	0	1	0	0	CorrectCommission	0.406173	0.502077	1	0	1.952174e+01
530.898438	1.346059	city	5	1	1.180497	1.180497	0	1	0	0	CorrectCommission	0.250036	0.498584	1	0	1.841304e+01
532.217896	1.292927	city	3	1	1.192205	1.192205	0	1	0	0	CorrectCommission	0.304608	0.497464	1	0	1.730435e+01
533.544250	1.359701	city	1	1	1.204565	1.204565	0	1	0	0	CorrectCommission	0.362218	0.498173	1	0	1.619565e+01
534.870483	1.292751	city	9	1	1.123999	1.123999	0	1	0	0	CorrectCommission	0.013307	0.499437	1	0	1.508696e+01
536.196655	1.359589	city	10	1	1.299822	1.299822	0	1	0	0	CorrectCommission	0.806215	0.499371	1	0	1.397826e+01
537.516296	1.279693	city	1	1	1.445033	1.445033	0	1	0	0	CorrectCommission	1.483050	0.495660	1	0	1.286957e+01
538.835876	1.359555	city	2	1	1.067969	1.067969	0	1	0	0	CorrectCommission	0.274463	0.485877	1	0	1.176087e+01
540.182068	1.332778	city	3	1	1.128026	1.128026	0	1	0	0	CorrectCommission	0.005466	0.467870	1	0	1.065217e+01
541.541626	1.386351	city	7	1	0.980665	0.980665	0	1	0	0	CorrectCommission	0.681391	0.440028	1	0	9.543478e+00
542.927917	1.386190	city	3	1	0.968350	0.968350	0	1	0	0	CorrectCommission	0.738795	0.401579	1	0	8.434783e+00
544.280762	1.319566	city	6	1	0.761152	0.761152	0	1	0	0	CorrectCommission	1.704554	0.352796	1	0	7.326087e+00
545.593628	1.306170	city	5	1	1.227820	1.227820	0	1	0	0	CorrectCommission	0.470610	0.295007	1	0	6.217391e+00
546.906433	1.319469	city	2	1	1.120083	1.120083	0	1	0	0	CorrectCommission	0.031560	0.230565	1	0	5.108696e+00
550.691895	6.251417	break	0	0	1.161737	1.161737	0	0	0	0	ThoughtProbe	0.162594	0.162594	1	4	4
