onset	duration	trial_type	image_type	Press	ReactionTime	ReactionTime_Interpolated	CorrectOmission	CorrectCommission	CommissionError	OmissionError	response_type	nonsmoothVarianceTimeCourse	VarianceTimeCourse	In_the_Zone	ThoughtProbe	ThoughtProbe_Interpolated
0.652855	1.279426	city	5	1	1.767868	1.767868	0	1	0	0	CorrectCommission	3.440638	3.440638	0	0	16
1.932438	1.279739	city	6	1	1.129467	1.129467	0	1	0	0	CorrectCommission	0.073116	3.064166	0	0	16
3.271998	1.399382	mountain	7	1	0.717529	0.717529	0	0	1	0	CommissionError	2.099828	2.698883	0	0	16
4.611477	1.279577	city	9	1	1.607660	1.607660	0	1	0	0	CorrectCommission	2.595552	2.355036	0	0	16
5.891135	1.279737	city	8	1	1.197603	1.197603	0	1	0	0	CorrectCommission	0.432530	2.041292	0	0	16
7.170783	1.279558	city	5	1	1.031921	1.031921	0	1	0	0	CorrectCommission	0.441430	1.764221	0	0	16
8.450305	1.279487	city	10	1	0.861896	0.861896	0	1	0	0	CorrectCommission	1.338303	1.527893	0	0	16
9.729850	1.279602	city	3	1	0.997007	0.997007	0	1	0	0	CorrectCommission	0.625600	1.333887	0	0	16
11.009484	1.279667	city	6	1	0.931200	0.931200	0	1	0	0	CorrectCommission	0.972728	1.181477	0	0	16
12.289043	1.279453	city	7	1	1.084593	1.084593	0	1	0	0	CorrectCommission	0.163591	1.067929	0	0	16
13.568614	1.279686	mountain	8	0	0.000000	1.196663	1	0	0	0	CorrectOmission	0.427570	0.988926	0	0	16
14.848257	1.279600	city	10	1	1.251918	1.251918	0	1	0	0	CorrectCommission	0.719038	0.939016	0	0	16
16.127836	1.279558	city	4	1	1.234868	1.234868	0	1	0	0	CorrectCommission	0.629100	0.912080	0	0	16
17.407333	1.279439	city	7	1	0.916206	0.916206	0	1	0	0	CorrectCommission	1.051819	0.901777	0	0	16
18.686920	1.279730	city	10	1	0.925720	0.925720	0	1	0	0	CorrectCommission	1.001634	0.901940	0	0	16
19.966583	1.279596	city	8	1	1.020847	1.020847	0	1	0	0	CorrectCommission	0.499847	0.906922	0	0	16
21.246159	1.279555	city	9	1	1.234256	1.234256	0	1	0	0	CorrectCommission	0.625868	0.911914	0	0	16
22.525726	1.279581	mountain	5	0	0.000000	1.467873	1	0	0	0	CorrectOmission	1.858184	0.913104	0	0	16
23.805246	1.279457	city	5	1	1.444871	1.444871	0	1	0	0	CorrectCommission	1.736848	0.907805	0	0	16
25.084747	1.279547	city	10	1	0.888420	0.888420	0	1	0	0	CorrectCommission	1.198390	0.894561	0	0	16
26.364386	1.279728	city	7	1	1.343073	1.343073	0	1	0	0	CorrectCommission	1.199871	0.873034	0	0	16
27.644049	1.279596	city	4	1	1.175073	1.175073	0	1	0	0	CorrectCommission	0.313684	0.843760	0	0	16
28.923630	1.279569	city	10	1	0.912124	0.912124	0	1	0	0	CorrectCommission	1.073351	0.808044	0	0	16
30.203197	1.279564	mountain	3	0	0.000000	0.989968	1	0	0	0	CorrectOmission	0.662728	0.767654	0	0	16
31.482800	1.279640	city	2	1	1.128548	1.128548	0	1	0	0	CorrectCommission	0.068266	0.724582	1	0	16
32.769054	1.292867	city	7	1	1.047804	1.047804	0	1	0	0	CorrectCommission	0.357651	0.680868	1	0	16
34.055279	1.279587	city	10	1	0.863704	0.863704	0	1	0	0	CorrectCommission	1.328764	0.638504	1	0	16
35.341473	1.292798	city	7	1	1.233799	1.233799	0	1	0	0	CorrectCommission	0.623461	0.599369	1	0	16
36.627705	1.279667	city	3	1	0.909726	0.909726	0	1	0	0	CorrectCommission	1.086004	0.565174	1	0	16
37.907265	1.279450	city	1	1	1.091563	1.091563	0	1	0	0	CorrectCommission	0.126823	0.537411	1	0	16
39.186844	1.279711	city	3	1	1.088331	1.088331	0	1	0	0	CorrectCommission	0.143871	0.517332	1	0	16
40.466454	1.279509	city	4	1	1.071355	1.071355	0	1	0	0	CorrectCommission	0.233420	0.505787	1	0	16
41.746044	1.279668	city	2	1	1.079200	1.079200	0	1	0	0	CorrectCommission	0.192037	0.503148	1	0	16
43.025669	1.279580	city	6	1	1.084885	1.084885	0	1	0	0	CorrectCommission	0.162053	0.509229	1	0	16
44.305161	1.279403	city	10	1	1.045603	1.045603	0	1	0	0	CorrectCommission	0.369259	0.523250	1	0	16
45.584644	1.279569	city	7	1	1.239957	1.239957	0	1	0	0	CorrectCommission	0.655941	0.543853	1	0	16
46.870884	1.292904	city	1	1	1.049835	1.049835	0	1	0	0	CorrectCommission	0.346937	0.569234	1	0	16
48.157215	1.279763	city	5	1	1.033528	1.033528	0	1	0	0	CorrectCommission	0.432956	0.597339	1	0	16
49.443550	1.292904	city	8	1	0.999894	0.999894	0	1	0	0	CorrectCommission	0.610371	0.626056	1	0	16
50.729797	1.279587	city	1	1	0.872932	0.872932	0	1	0	0	CorrectCommission	1.280088	0.653451	1	0	16
52.016045	1.292910	city	4	1	0.941514	0.941514	0	1	0	0	CorrectCommission	0.918323	0.677941	1	0	16
53.302204	1.279405	city	8	1	0.914989	0.914989	0	1	0	0	CorrectCommission	1.058241	0.698503	1	0	16
54.641739	1.399666	city	10	1	0.980434	0.980434	0	1	0	0	CorrectCommission	0.713021	0.714670	1	0	16
55.981380	1.279623	city	4	1	0.976758	0.976758	0	1	0	0	CorrectCommission	0.732415	0.726579	1	0	16
57.260986	1.279582	city	3	1	1.020188	1.020188	0	1	0	0	CorrectCommission	0.503321	0.734831	1	0	16
57.900776	12.169145	break	0	1	1.190070	1.190070	0	0	0	0	ThoughtProbe	0.392796	0.740386	1	16	16
70.709785	1.279737	city	1	1	1.391088	1.391088	0	1	0	0	CorrectCommission	1.453151	0.744438	1	0	1.570000e+01
71.989449	1.279584	city	3	1	1.189719	1.189719	0	1	0	0	CorrectCommission	0.390942	0.748225	1	0	1.540000e+01
73.269028	1.279577	city	4	1	1.085532	1.085532	0	1	0	0	CorrectCommission	0.158638	0.752948	1	0	1.510000e+01
74.548607	1.279569	city	3	1	0.804345	0.804345	0	1	0	0	CorrectCommission	1.641878	0.759655	1	0	1.480000e+01
75.828178	1.279586	mountain	5	0	0.000000	1.020745	1	0	0	0	CorrectOmission	0.500386	0.769094	0	0	1.450000e+01
77.107773	1.279599	city	1	1	1.231741	1.231741	0	1	0	0	CorrectCommission	0.612604	0.781727	0	0	1.420000e+01
78.387352	1.279561	city	6	1	0.934344	0.934344	0	1	0	0	CorrectCommission	0.956143	0.797573	0	0	1.390000e+01
79.666870	1.279468	mountain	1	0	0.000000	0.973734	1	0	0	0	CorrectOmission	0.748362	0.816199	0	0	1.360000e+01
80.946457	1.279712	city	9	1	1.089335	1.089335	0	1	0	0	CorrectCommission	0.138578	0.836716	0	0	1.330000e+01
82.226013	1.279400	city	8	1	1.020568	1.020568	0	1	0	0	CorrectCommission	0.501316	0.857835	0	0	13
83.505585	1.279746	city	2	1	0.929647	0.929647	0	1	0	0	CorrectCommission	0.980919	0.877944	0	0	1.270000e+01
84.785240	1.279553	city	6	1	0.908544	0.908544	0	1	0	0	CorrectCommission	1.092236	0.895292	0	0	1.240000e+01
86.064804	1.279584	city	4	1	0.754726	0.754726	0	1	0	0	CorrectCommission	1.903615	0.908209	0	0	1.210000e+01
87.344406	1.279608	city	9	1	0.971641	0.971641	0	1	0	0	CorrectCommission	0.759407	0.915270	0	0	1.180000e+01
88.623985	1.279560	city	3	1	0.865035	0.865035	0	1	0	0	CorrectCommission	1.321742	0.915536	0	0	1.150000e+01
89.903557	1.279576	city	2	1	0.984422	0.984422	0	1	0	0	CorrectCommission	0.691987	0.908536	0	0	1.120000e+01
91.183144	1.279596	city	10	1	0.857681	0.857681	0	1	0	0	CorrectCommission	1.360536	0.894401	0	0	1.090000e+01
92.462723	1.279566	city	4	1	1.348183	1.348183	0	1	0	0	CorrectCommission	1.226827	0.873772	0	0	1.060000e+01
93.742294	1.279574	city	10	1	1.085278	1.085278	0	1	0	0	CorrectCommission	0.159976	0.847774	0	0	1.030000e+01
95.021881	1.279605	city	7	1	1.284190	1.284190	0	1	0	0	CorrectCommission	0.889272	0.817885	0	0	10
96.301476	1.279575	city	8	1	0.964175	0.964175	0	1	0	0	CorrectCommission	0.798786	0.785828	0	0	9.700000e+00
97.580978	1.279441	mountain	7	0	0.000000	1.176285	1	0	0	0	CorrectOmission	0.320077	0.753518	1	0	9.400000e+00
98.860550	1.279701	city	9	1	1.335794	1.335794	0	1	0	0	CorrectCommission	1.161474	0.722902	1	0	9.100000e+00
100.140190	1.279575	city	6	1	0.857976	0.857976	0	1	0	0	CorrectCommission	1.358980	0.695897	1	0	8.800000e+00
101.419777	1.279605	city	3	1	1.016383	1.016383	0	1	0	0	CorrectCommission	0.523393	0.674300	1	0	8.500000e+00
102.699371	1.279573	city	5	1	1.106567	1.106567	0	1	0	0	CorrectCommission	0.047678	0.659631	1	0	8.200000e+00
103.978943	1.279579	city	6	1	1.040150	1.040150	0	1	0	0	CorrectCommission	0.398022	0.652997	1	0	7.900000e+00
105.258522	1.279578	city	2	1	1.017690	1.017690	0	1	0	0	CorrectCommission	0.516499	0.654902	1	0	7.600000e+00
106.538048	1.279471	city	5	1	1.071136	1.071136	0	1	0	0	CorrectCommission	0.234574	0.665225	1	0	7.300000e+00
107.817619	1.279666	city	8	1	1.071017	1.071017	0	1	0	0	CorrectCommission	0.235202	0.683193	1	0	7
109.097252	1.279599	city	7	1	1.124986	1.124986	0	1	0	0	CorrectCommission	0.049482	0.707477	1	0	6.700000e+00
110.376839	1.279585	city	2	1	0.938001	0.938001	0	1	0	0	CorrectCommission	0.936851	0.736375	1	0	6.400000e+00
111.656410	1.279559	city	10	1	0.910797	0.910797	0	1	0	0	CorrectCommission	1.080351	0.767996	0	0	6.100000e+00
112.935913	1.279444	city	5	1	1.569575	1.569575	0	1	0	0	CorrectCommission	2.394656	0.800527	0	0	5.800000e+00
114.215508	1.279742	city	3	1	1.251868	1.251868	0	1	0	0	CorrectCommission	0.718775	0.832348	0	0	5.500000e+00
115.495148	1.279546	city	7	1	1.180900	1.180900	0	1	0	0	CorrectCommission	0.344420	0.862206	0	0	5.200000e+00
116.774704	1.279565	city	9	1	0.986569	0.986569	0	1	0	0	CorrectCommission	0.680658	0.889097	0	0	4.900000e+00
118.054283	1.279594	city	5	1	0.910970	0.910970	0	1	0	0	CorrectCommission	1.079441	0.912205	0	0	4.600000e+00
119.333801	1.279433	city	2	1	1.121979	1.121979	0	1	0	0	CorrectCommission	0.033620	0.930811	0	0	4.300000e+00
119.973518	8.477379	break	0	0	0.000000	1.410164	0	0	0	0	ThoughtProbe	1.553776	0.944208	0	4	4
129.090607	1.279413	city	10	1	1.503568	1.503568	0	1	0	0	CorrectCommission	2.046470	0.951639	0	0	3.925000e+00
130.370209	1.279811	city	2	1	1.130231	1.130231	0	1	0	0	CorrectCommission	0.077148	0.952361	0	0	3.850000e+00
131.649796	1.279343	city	5	1	1.039113	1.039113	0	1	0	0	CorrectCommission	0.403497	0.945804	0	0	3.775000e+00
132.929337	1.279764	city	8	1	0.910396	0.910396	0	1	0	0	CorrectCommission	1.082466	0.931651	0	0	3.700000e+00
134.208923	1.279388	city	7	1	0.697694	0.697694	0	1	0	0	CorrectCommission	2.204457	0.909995	0	0	3.625000e+00
135.488480	1.279738	city	8	1	0.702802	0.702802	0	1	0	0	CorrectCommission	2.177513	0.881423	0	0	3.550000e+00
136.774811	1.292918	city	7	1	1.089927	1.089927	0	1	0	0	CorrectCommission	0.135452	0.847051	0	0	3.475000e+00
138.067734	1.292920	city	2	1	0.953389	0.953389	0	1	0	0	CorrectCommission	0.855680	0.808435	0	0	3.400000e+00
139.353958	1.279553	mountain	3	0	0.000000	1.056432	1	0	0	0	CorrectOmission	0.312136	0.767266	0	0	3.325000e+00
140.633392	1.279291	city	6	1	1.147274	1.147274	0	1	0	0	CorrectCommission	0.167047	0.725237	1	0	3.250000e+00
141.939545	1.333019	city	1	1	0.974132	0.974132	0	1	0	0	CorrectCommission	0.746265	0.683779	1	0	3.175000e+00
143.252594	1.293096	mountain	9	1	1.036073	1.036073	0	0	1	0	CommissionError	0.419528	0.643903	1	0	3.100000e+00
144.538849	1.279416	city	4	1	1.179129	1.179129	0	1	0	0	CorrectCommission	0.335082	0.606174	1	0	3.025000e+00
145.818436	1.279734	city	9	1	0.929511	0.929511	0	1	0	0	CorrectCommission	0.981639	0.570745	1	0	2.950000e+00
147.098083	1.279579	city	3	1	0.978716	0.978716	0	1	0	0	CorrectCommission	0.722086	0.537469	1	0	2.875000e+00
148.377670	1.279593	city	2	1	0.977351	0.977351	0	1	0	0	CorrectCommission	0.729284	0.506101	1	0	2.800000e+00
149.663910	1.292881	city	4	1	1.099470	1.099470	0	1	0	0	CorrectCommission	0.085116	0.476476	1	0	2.725000e+00
150.950150	1.279601	city	10	1	0.972759	0.972759	0	1	0	0	CorrectCommission	0.753508	0.448684	1	0	2.650000e+00
152.249725	1.319540	city	8	1	1.093684	1.093684	0	1	0	0	CorrectCommission	0.115637	0.423051	1	0	2.575000e+00
153.549210	1.279439	city	6	1	0.982765	0.982765	0	1	0	0	CorrectCommission	0.700725	0.400215	1	0	2.500000e+00
154.828705	1.279561	city	5	1	1.042788	1.042788	0	1	0	0	CorrectCommission	0.384111	0.381029	1	0	2.425000e+00
156.108368	1.279743	city	10	1	1.123934	1.123934	0	1	0	0	CorrectCommission	0.043932	0.366448	1	0	2.350000e+00
157.388016	1.279574	city	2	1	1.126339	1.126339	0	1	0	0	CorrectCommission	0.056618	0.357374	1	0	2.275000e+00
158.667603	1.279579	city	1	1	1.188052	1.188052	0	1	0	0	CorrectCommission	0.382146	0.354546	1	0	2.200000e+00
159.960510	1.306237	city	2	1	1.088896	1.088896	0	1	0	0	CorrectCommission	0.140890	0.358361	1	0	2.125000e+00
161.253433	1.279604	city	5	1	1.143188	1.143188	0	1	0	0	CorrectCommission	0.145491	0.368826	1	0	2.050000e+00
162.532928	1.279405	city	4	1	1.198921	1.198921	0	1	0	0	CorrectCommission	0.439479	0.385553	1	0	1.975000e+00
163.812439	1.279611	city	5	1	1.143466	1.143466	0	1	0	0	CorrectCommission	0.146959	0.407741	1	0	1.900000e+00
165.092087	1.279697	city	10	1	1.021315	1.021315	0	1	0	0	CorrectCommission	0.497379	0.434371	1	0	1.825000e+00
166.371689	1.279510	city	1	1	1.037249	1.037249	0	1	0	0	CorrectCommission	0.413328	0.464248	1	0	1.750000e+00
167.651276	1.279647	mountain	10	1	1.187882	1.187882	0	0	1	0	CommissionError	0.381251	0.496175	1	0	1.675000e+00
168.930817	1.279443	city	1	1	1.185910	1.185910	0	1	0	0	CorrectCommission	0.370851	0.529091	1	0	1.600000e+00
170.210403	1.279720	city	6	1	1.358500	1.358500	0	1	0	0	CorrectCommission	1.281249	0.562171	1	0	1.525000e+00
171.496704	1.292891	city	7	1	1.251827	1.251827	0	1	0	0	CorrectCommission	0.718559	0.594847	1	0	1.450000e+00
172.782898	1.279491	city	5	1	1.230261	1.230261	0	1	0	0	CorrectCommission	0.604797	0.626876	1	0	1.375000e+00
174.069153	1.293032	city	8	1	1.094445	1.094445	0	1	0	0	CorrectCommission	0.111624	0.658219	1	0	1.300000e+00
175.355438	1.279515	city	9	1	1.393233	1.393233	0	1	0	0	CorrectCommission	1.464462	0.688949	1	0	1.225000e+00
176.635010	1.279644	city	6	1	1.185498	1.185498	0	1	0	0	CorrectCommission	0.368677	0.719068	1	0	1.150000e+00
177.914627	1.279574	city	4	1	1.186970	1.186970	0	1	0	0	CorrectCommission	0.376439	0.748492	1	0	1.075000e+00
178.554413	11.103037	break	0	1	1.195481	1.195481	0	0	0	0	ThoughtProbe	0.421336	0.776857	0	1	1
190.297211	1.279540	mountain	5	0	0.000000	1.250769	1	0	0	0	CorrectOmission	0.712973	0.803537	0	0	9.705882e-01
191.576706	1.279431	city	1	1	1.340438	1.340438	0	1	0	0	CorrectCommission	1.185974	0.827656	0	0	9.411765e-01
192.856293	1.279744	city	10	1	1.452096	1.452096	0	1	0	0	CorrectCommission	1.774963	0.848197	0	0	9.117647e-01
194.142578	1.292829	city	5	1	1.258473	1.258473	0	1	0	0	CorrectCommission	0.753614	0.864122	0	0	8.823529e-01
195.428726	1.279476	city	3	1	1.081158	1.081158	0	1	0	0	CorrectCommission	0.181708	0.874572	0	0	8.529412e-01
196.708252	1.279580	city	10	1	0.751674	0.751674	0	1	0	0	CorrectCommission	1.919713	0.878931	0	0	8.235294e-01
197.987930	1.279762	city	7	1	1.133965	1.133965	0	1	0	0	CorrectCommission	0.096842	0.876922	0	0	7.941176e-01
199.267593	1.279577	city	4	1	0.919690	0.919690	0	1	0	0	CorrectCommission	1.033444	0.868806	0	0	7.647059e-01
200.567169	1.319571	city	1	1	0.822624	0.822624	0	1	0	0	CorrectCommission	1.545457	0.855246	0	0	7.352941e-01
201.873413	1.292905	city	5	1	0.970334	0.970334	0	1	0	0	CorrectCommission	0.766296	0.837395	0	0	7.058824e-01
203.159637	1.279561	city	10	1	0.932889	0.932889	0	1	0	0	CorrectCommission	0.963819	0.816826	0	0	6.764706e-01
204.439209	1.279573	city	3	1	1.402234	1.402234	0	1	0	0	CorrectCommission	1.511943	0.795310	0	0	6.470588e-01
205.718781	1.279584	city	4	1	1.124967	1.124967	0	1	0	0	CorrectCommission	0.049381	0.774689	0	0	6.176471e-01
206.998291	1.279417	city	9	1	1.030100	1.030100	0	1	0	0	CorrectCommission	0.451038	0.756705	1	0	5.882353e-01
208.284500	1.292998	city	5	1	0.998854	0.998854	0	1	0	0	CorrectCommission	0.615858	0.742763	1	0	5.588235e-01
209.570816	1.279645	city	1	1	1.082587	1.082587	0	1	0	0	CorrectCommission	0.174172	0.733831	1	0	5.294118e-01
210.850372	1.279469	city	8	1	1.088737	1.088737	0	1	0	0	CorrectCommission	0.141732	0.730373	1	0	5.000000e-01
212.129959	1.279695	mountain	8	0	0.000000	1.305455	1	0	0	0	CorrectOmission	1.001438	0.732409	1	0	4.705882e-01
213.409592	1.279572	city	5	1	1.375340	1.375340	0	1	0	0	CorrectCommission	1.370077	0.739505	1	0	4.411765e-01
214.695847	1.292933	city	8	1	0.940993	0.940993	0	1	0	0	CorrectCommission	0.921073	0.750984	1	0	4.117647e-01
215.988678	1.292728	city	5	1	1.260164	1.260164	0	1	0	0	CorrectCommission	0.762534	0.766008	1	0	3.823529e-01
217.274918	1.279758	city	1	1	1.237145	1.237145	0	1	0	0	CorrectCommission	0.641111	0.783643	0	0	3.529412e-01
218.554565	1.279531	city	8	1	1.131747	1.131747	0	1	0	0	CorrectCommission	0.085143	0.802879	0	0	3.235294e-01
219.834137	1.279631	city	7	1	1.349909	1.349909	0	1	0	0	CorrectCommission	1.235930	0.822671	0	0	2.941176e-01
221.113739	1.279553	city	2	1	0.979962	0.979962	0	1	0	0	CorrectCommission	0.715512	0.841869	0	0	2.647059e-01
222.393295	1.279583	city	8	1	0.977142	0.977142	0	1	0	0	CorrectCommission	0.730388	0.859330	0	0	2.352941e-01
223.672897	1.279600	city	3	1	1.366460	1.366460	0	1	0	0	CorrectCommission	1.323240	0.873891	0	0	2.058824e-01
224.959091	1.292808	city	5	1	1.056665	1.056665	0	1	0	0	CorrectCommission	0.310911	0.884416	0	0	1.764706e-01
226.278549	1.346106	city	3	1	1.318186	1.318186	0	1	0	0	CorrectCommission	1.068598	0.889981	0	0	1.470588e-01
227.591431	1.279655	city	2	1	1.568078	1.568078	0	1	0	0	CorrectCommission	2.386757	0.889892	0	0	1.176471e-01
228.884445	1.306374	city	7	1	1.196588	1.196588	0	1	0	0	CorrectCommission	0.427173	0.883777	0	0	8.823529e-02
230.177429	1.279584	city	9	1	0.980718	0.980718	0	1	0	0	CorrectCommission	0.711526	0.871751	0	0	5.882353e-02
231.456985	1.279528	city	7	1	1.087899	1.087899	0	1	0	0	CorrectCommission	0.146149	0.854308	0	0	2.941176e-02
232.096756	8.237328	break	0	1	0.769590	0.769590	0	0	0	0	ThoughtProbe	1.825208	0.832329	0	0	0
240.973877	1.279606	city	4	1	1.347929	1.347929	0	1	0	0	CorrectCommission	1.225490	0.806973	0	0	1.152174e+00
242.253418	1.279473	city	2	1	1.081237	1.081237	0	1	0	0	CorrectCommission	0.181292	0.779629	0	0	2.304348e+00
243.539642	1.292971	city	4	1	0.873040	0.873040	0	1	0	0	CorrectCommission	1.279516	0.751718	1	0	3.456522e+00
244.825851	1.279439	city	8	1	1.138427	1.138427	0	1	0	0	CorrectCommission	0.120381	0.724524	1	0	4.608696e+00
246.105438	1.279742	city	9	1	1.199263	1.199263	0	1	0	0	CorrectCommission	0.441284	0.699136	1	0	5.760870e+00
247.391724	1.292818	city	6	1	0.998131	0.998131	0	1	0	0	CorrectCommission	0.619670	0.676262	1	0	6.913043e+00
248.677963	1.279672	city	10	1	0.920919	0.920919	0	1	0	0	CorrectCommission	1.026960	0.656209	1	0	8.065217e+00
249.964249	1.292883	city	3	1	1.109295	1.109295	0	1	0	0	CorrectCommission	0.033291	0.638899	1	0	9.217391e+00
251.257141	1.292913	city	6	1	1.021721	1.021721	0	1	0	0	CorrectCommission	0.495234	0.623962	1	0	1.036957e+01
252.543381	1.279574	mountain	4	0	0.000000	1.230299	1	0	0	0	CorrectOmission	0.604999	0.610763	1	0	1.152174e+01
253.822968	1.279581	city	6	1	1.345610	1.345610	0	1	0	0	CorrectCommission	1.213254	0.598585	1	0	1.267391e+01
255.109222	1.292932	city	10	1	0.978235	0.978235	0	1	0	0	CorrectCommission	0.724622	0.586710	1	0	1.382609e+01
256.395416	1.279473	city	2	1	1.255394	1.255394	0	1	0	0	CorrectCommission	0.737375	0.574549	1	0	1.497826e+01
257.694977	1.319664	city	6	1	1.114403	1.114403	0	1	0	0	CorrectCommission	0.006346	0.561680	1	0	1.613043e+01
259.007935	1.306236	city	8	1	0.985552	0.985552	0	1	0	0	CorrectCommission	0.686022	0.547883	1	0	1.728261e+01
260.300842	1.279558	mountain	9	0	0.000000	1.081579	1	0	0	0	CorrectOmission	0.179489	0.533124	1	0	1.843478e+01
261.580414	1.279626	mountain	10	1	1.239503	1.239503	0	0	1	0	CommissionError	0.653547	0.517580	1	0	1.958696e+01
262.860016	1.279554	city	7	1	1.296343	1.296343	0	1	0	0	CorrectCommission	0.953377	0.501530	1	0	2.073913e+01
264.139496	1.279395	city	4	1	1.232020	1.232020	0	1	0	0	CorrectCommission	0.614078	0.485399	1	0	2.189130e+01
265.432373	1.306355	city	10	1	1.160190	1.160190	0	1	0	0	CorrectCommission	0.235180	0.469676	1	0	2.304348e+01
266.732025	1.292955	city	2	1	0.997920	0.997920	0	1	0	0	CorrectCommission	0.620784	0.454855	1	0	2.419565e+01
268.031586	1.306159	city	5	1	1.088552	1.088552	0	1	0	0	CorrectCommission	0.142710	0.441364	1	0	2.534783e+01
269.324402	1.279493	mountain	9	0	0.000000	1.172861	1	0	0	0	CorrectOmission	0.302016	0.429508	1	0	2.650000e+01
270.604034	1.279749	city	2	1	1.178404	1.178404	0	1	0	0	CorrectCommission	0.331256	0.419474	1	0	2.765217e+01
271.883606	1.279440	city	10	1	1.032737	1.032737	0	1	0	0	CorrectCommission	0.437125	0.411286	1	0	2.880435e+01
273.163208	1.279713	city	5	1	1.137640	1.137640	0	1	0	0	CorrectCommission	0.116229	0.404930	1	0	2.995652e+01
274.449524	1.292929	city	10	1	1.046794	1.046794	0	1	0	0	CorrectCommission	0.362978	0.400365	1	0	3.110870e+01
275.735748	1.279561	city	7	1	1.296182	1.296182	0	1	0	0	CorrectCommission	0.952524	0.397661	1	0	3.226087e+01
277.041962	1.332845	city	9	1	1.195327	1.195327	0	1	0	0	CorrectCommission	0.420522	0.397063	1	0	3.341304e+01
278.354828	1.292857	city	3	1	1.098504	1.098504	0	1	0	0	CorrectCommission	0.090209	0.399083	1	0	3.456522e+01
279.640961	1.279435	city	2	1	1.261790	1.261790	0	1	0	0	CorrectCommission	0.771111	0.404446	1	0	3.571739e+01
280.933838	1.306344	city	6	1	1.134519	1.134519	0	1	0	0	CorrectCommission	0.099763	0.414029	1	0	3.686957e+01
282.226868	1.279712	city	7	1	1.189308	1.189308	0	1	0	0	CorrectCommission	0.388773	0.428769	1	0	3.802174e+01
283.526520	1.319587	city	8	1	1.051477	1.051477	0	1	0	0	CorrectCommission	0.338276	0.449444	1	0	3.917391e+01
284.832703	1.292751	city	5	1	1.095559	1.095559	0	1	0	0	CorrectCommission	0.105746	0.476538	1	0	4.032609e+01
286.132233	1.306293	city	1	1	0.989357	0.989357	0	1	0	0	CorrectCommission	0.665955	0.510094	1	0	4.147826e+01
287.431885	1.293008	city	4	1	1.100122	1.100122	0	1	0	0	CorrectCommission	0.081677	0.549569	1	0	4.263043e+01
288.724823	1.292888	city	8	1	1.080782	1.080782	0	1	0	0	CorrectCommission	0.183692	0.593869	1	0	4.378261e+01
290.017731	1.292917	city	2	1	1.193065	1.193065	0	1	0	0	CorrectCommission	0.408590	0.641380	1	0	4.493478e+01
291.310638	1.292921	city	5	1	1.188336	1.188336	0	1	0	0	CorrectCommission	0.383647	0.690132	1	0	4.608696e+01
292.596893	1.279586	city	7	1	1.562359	1.562359	0	1	0	0	CorrectCommission	2.356588	0.738036	1	0	4.723913e+01
293.876404	1.279439	city	3	1	1.027754	1.027754	0	1	0	0	CorrectCommission	0.463410	0.783023	0	0	4.839130e+01
295.155914	1.279556	city	7	1	1.302029	1.302029	0	1	0	0	CorrectCommission	0.983370	0.823378	0	0	4.954348e+01
296.468872	1.346381	city	1	1	1.201105	1.201105	0	1	0	0	CorrectCommission	0.450999	0.857746	0	0	5.069565e+01
297.781830	1.279558	city	7	1	1.511170	1.511170	0	1	0	0	CorrectCommission	2.086574	0.885304	0	0	5.184783e+01
298.421631	10.676471	break	0	1	1.095796	1.095796	0	0	0	0	ThoughtProbe	0.104498	0.905651	0	53	53
309.744476	1.292767	city	9	1	1.314205	1.314205	0	1	0	0	CorrectCommission	1.047597	0.918885	0	0	5.275000e+01
311.044067	1.306412	city	1	1	0.844549	0.844549	0	1	0	0	CorrectCommission	1.429806	0.925407	0	0	5.250000e+01
312.336975	1.279431	city	7	1	1.311501	1.311501	0	1	0	0	CorrectCommission	1.033333	0.925832	0	0	5.225000e+01
313.629883	1.306388	city	2	1	1.036796	1.036796	0	1	0	0	CorrectCommission	0.415717	0.920919	0	0	52
314.936188	1.306219	city	9	1	0.930090	0.930090	0	1	0	0	CorrectCommission	0.978582	0.911482	0	0	5.175000e+01
316.235779	1.292924	mountain	1	1	0.827638	0.827638	0	0	1	0	CommissionError	1.519008	0.898309	0	0	5.150000e+01
317.521942	1.279420	city	9	1	1.047990	1.047990	0	1	0	0	CorrectCommission	0.356667	0.882121	0	0	5.125000e+01
318.808136	1.292936	city	1	1	0.941508	0.941508	0	1	0	0	CorrectCommission	0.918354	0.863625	0	0	5.100000e+01
320.094269	1.279344	city	4	1	1.361661	1.361661	0	1	0	0	CorrectCommission	1.297923	0.843388	0	0	5.075000e+01
321.380493	1.293109	city	1	1	1.332365	1.332365	0	1	0	0	CorrectCommission	1.143390	0.821887	0	0	5.050000e+01
322.673584	1.293074	city	2	1	1.207853	1.207853	0	1	0	0	CorrectCommission	0.486595	0.799473	0	0	5.025000e+01
323.959900	1.279557	mountain	6	0	0.000000	1.137247	1	0	0	0	CorrectOmission	0.114156	0.776387	0	0	5.000000e+01
325.239471	1.279587	city	9	1	1.032298	1.032298	0	1	0	0	CorrectCommission	0.439441	0.752741	1	0	4.975000e+01
326.519012	1.279480	city	3	1	0.804756	0.804756	0	1	0	0	CorrectCommission	1.639709	0.728554	1	0	4.950000e+01
327.798584	1.279670	city	6	1	1.046982	1.046982	0	1	0	0	CorrectCommission	0.361987	0.703807	1	0	4.925000e+01
329.084778	1.292764	city	8	1	0.927634	0.927634	0	1	0	0	CorrectCommission	0.991536	0.678630	1	0	49
330.384369	1.306388	city	4	1	1.056049	1.056049	0	1	0	0	CorrectCommission	0.314156	0.653244	1	0	4.875000e+01
331.677368	1.279588	city	8	1	0.857564	0.857564	0	1	0	0	CorrectCommission	1.361152	0.628167	1	0	4.850000e+01
332.956940	1.279580	city	6	1	1.069396	1.069396	0	1	0	0	CorrectCommission	0.243756	0.604136	1	0	4.825000e+01
334.249847	1.306224	city	3	1	1.095622	1.095622	0	1	0	0	CorrectCommission	0.105413	0.582178	1	0	48
335.542755	1.279586	city	6	1	1.355310	1.355310	0	1	0	0	CorrectCommission	1.264422	0.563417	1	0	4.775000e+01
336.835663	1.306231	city	9	1	1.108384	1.108384	0	1	0	0	CorrectCommission	0.038096	0.549030	1	0	4.750000e+01
338.141846	1.306146	city	10	1	1.004120	1.004120	0	1	0	0	CorrectCommission	0.588081	0.540048	1	0	4.725000e+01
339.448090	1.306324	city	5	1	1.049880	1.049880	0	1	0	0	CorrectCommission	0.346702	0.537132	1	0	47
340.747711	1.292910	city	8	1	1.036876	1.036876	0	1	0	0	CorrectCommission	0.415293	0.540504	1	0	4.675000e+01
342.040619	1.292914	city	7	1	1.111472	1.111472	0	1	0	0	CorrectCommission	0.021804	0.549871	1	0	4.650000e+01
343.333527	1.292894	city	3	1	0.998468	0.998468	0	1	0	0	CorrectCommission	0.617892	0.564416	1	0	4.625000e+01
344.619690	1.279435	mountain	5	0	0.000000	1.136167	1	0	0	0	CorrectOmission	0.108456	0.582869	1	0	46
345.899261	1.279727	city	4	1	1.246992	1.246992	0	1	0	0	CorrectCommission	0.693055	0.603789	1	0	4.575000e+01
347.192230	1.306241	city	6	1	1.053371	1.053371	0	1	0	0	CorrectCommission	0.328282	0.625781	1	0	4.550000e+01
348.485138	1.279565	city	8	1	0.818687	0.818687	0	1	0	0	CorrectCommission	1.566227	0.647761	1	0	4.525000e+01
349.764679	1.279476	city	9	1	1.352613	1.352613	0	1	0	0	CorrectCommission	1.250194	0.669134	1	0	45
351.050903	1.293021	city	2	1	0.975983	0.975983	0	1	0	0	CorrectCommission	0.736499	0.689977	1	0	4.475000e+01
352.343903	1.292925	city	6	1	1.017633	1.017633	0	1	0	0	CorrectCommission	0.516802	0.710952	1	0	4.450000e+01
353.630066	1.279412	city	1	1	0.923076	0.923076	0	1	0	0	CorrectCommission	1.015583	0.733109	1	0	4.425000e+01
354.929626	1.319741	city	9	1	0.984459	0.984459	0	1	0	0	CorrectCommission	0.691788	0.757537	1	0	44
356.242615	1.306241	city	2	1	1.067629	1.067629	0	1	0	0	CorrectCommission	0.253074	0.785076	0	0	4.375000e+01
357.542114	1.292732	city	1	1	1.086062	1.086062	0	1	0	0	CorrectCommission	0.155841	0.815927	0	0	4.350000e+01
358.841675	1.306382	city	3	1	1.100986	1.100986	0	1	0	0	CorrectCommission	0.077120	0.849438	0	0	4.325000e+01
359.494873	10.969745	break	0	1	1.083907	1.083907	0	0	0	0	ThoughtProbe	0.167208	0.884006	0	43	43
371.104462	1.279694	city	9	1	1.618851	1.618851	0	1	0	0	CorrectCommission	2.654582	0.917220	0	0	4.255882e+01
372.403961	1.319303	city	1	1	0.858801	0.858801	0	1	0	0	CorrectCommission	1.354625	0.946077	0	0	4.211765e+01
373.716705	1.306212	city	4	1	1.208643	1.208643	0	1	0	0	CorrectCommission	0.490762	0.967466	0	0	4.167647e+01
375.022919	1.306229	city	2	1	1.257052	1.257052	0	1	0	0	CorrectCommission	0.746116	0.978548	0	0	4.123529e+01
376.329254	1.306393	city	4	1	0.730162	0.730162	0	1	0	0	CorrectCommission	2.033189	0.977154	0	0	4.079412e+01
377.628845	1.292835	mountain	6	1	0.751806	0.751806	0	0	1	0	CommissionError	1.919020	0.962105	0	0	4.035294e+01
378.928436	1.306333	city	8	1	0.960639	0.960639	0	1	0	0	CorrectCommission	0.817440	0.933454	0	0	3.991176e+01
380.227966	1.292735	city	7	1	1.020557	1.020557	0	1	0	0	CorrectCommission	0.501379	0.892528	0	0	3.947059e+01
381.514221	1.279734	city	10	1	0.714696	0.714696	0	1	0	0	CorrectCommission	2.114769	0.841780	0	0	3.902941e+01
382.820496	1.332839	city	6	1	1.275270	1.275270	0	1	0	0	CorrectCommission	0.842216	0.784533	0	0	3.858824e+01
384.140045	1.306286	city	4	1	1.119359	1.119359	0	1	0	0	CorrectCommission	0.019796	0.724728	1	0	3.814706e+01
385.432922	1.279451	city	3	1	1.044285	1.044285	0	1	0	0	CorrectCommission	0.376214	0.666479	1	0	3.770588e+01
386.745758	1.346196	city	1	1	1.181663	1.181663	0	1	0	0	CorrectCommission	0.348446	0.613665	1	0	3.726471e+01
388.058716	1.279743	city	5	1	1.189332	1.189332	0	1	0	0	CorrectCommission	0.388902	0.569613	1	0	3.682353e+01
389.378357	1.359549	city	9	1	1.179903	1.179903	0	1	0	0	CorrectCommission	0.339165	0.536832	1	0	3.638235e+01
390.697937	1.279600	city	5	1	1.135806	1.135806	0	1	0	0	CorrectCommission	0.106554	0.516815	1	0	3.594118e+01
391.984192	1.292883	city	2	1	1.034505	1.034505	0	1	0	0	CorrectCommission	0.427800	0.509951	1	0	3.550000e+01
393.290405	1.319569	city	8	1	1.155577	1.155577	0	1	0	0	CorrectCommission	0.210843	0.515528	1	0	3.505882e+01
394.589996	1.279605	city	9	1	1.150807	1.150807	0	1	0	0	CorrectCommission	0.185684	0.531858	1	0	3.461765e+01
395.882904	1.306237	city	5	1	1.044706	1.044706	0	1	0	0	CorrectCommission	0.373992	0.556437	1	0	3.417647e+01
397.182465	1.292885	mountain	9	1	1.021520	1.021520	0	0	1	0	CommissionError	0.496297	0.586156	1	0	3.373529e+01
398.475342	1.292828	city	7	1	1.271861	1.271861	0	1	0	0	CorrectCommission	0.824235	0.617638	1	0	3.329412e+01
399.761566	1.279663	city	5	1	1.031703	1.031703	0	1	0	0	CorrectCommission	0.442582	0.647461	1	0	3.285294e+01
401.054443	1.306073	city	8	1	0.874356	0.874356	0	1	0	0	CorrectCommission	1.272578	0.672554	1	0	3.241176e+01
402.360687	1.306420	city	4	1	0.930052	0.930052	0	1	0	0	CorrectCommission	0.978785	0.690422	1	0	3.197059e+01
403.660339	1.292906	city	9	1	0.914747	0.914747	0	1	0	0	CorrectCommission	1.059518	0.699371	1	0	3.152941e+01
404.953247	1.292903	city	6	1	0.926586	0.926586	0	1	0	0	CorrectCommission	0.997065	0.698577	1	0	3.108824e+01
406.259430	1.319410	city	3	1	0.904542	0.904542	0	1	0	0	CorrectCommission	1.113348	0.688112	1	0	3.064706e+01
407.558929	1.279603	city	6	1	1.236441	1.236441	0	1	0	0	CorrectCommission	0.637396	0.668858	1	0	3.020588e+01
408.858551	1.319681	city	3	1	1.233680	1.233680	0	1	0	0	CorrectCommission	0.622832	0.642340	1	0	2.976471e+01
410.164856	1.292928	city	9	1	1.093644	1.093644	0	1	0	0	CorrectCommission	0.115846	0.610443	1	0	2.932353e+01
411.471130	1.319570	city	10	1	0.941328	0.941328	0	1	0	0	CorrectCommission	0.919303	0.575270	1	0	2.888235e+01
412.777344	1.292906	city	7	1	1.057483	1.057483	0	1	0	0	CorrectCommission	0.306591	0.538896	1	0	2.844118e+01
413.423798	8.103818	break	0	1	0.959350	0.959350	0	0	0	0	ThoughtProbe	0.824239	0.503206	1	28	28
422.174164	1.293072	mountain	6	0	0.000000	1.037053	1	0	0	0	CorrectOmission	0.414359	0.469811	1	0	2.767391e+01
423.467163	1.292906	city	1	1	1.139155	1.139155	0	1	0	0	CorrectCommission	0.124218	0.440022	1	0	2.734783e+01
424.766724	1.306253	city	4	1	1.114215	1.114215	0	1	0	0	CorrectCommission	0.007338	0.414893	1	0	2.702174e+01
426.072906	1.306126	city	1	1	1.104827	1.104827	0	1	0	0	CorrectCommission	0.056860	0.395237	1	0	2.669565e+01
427.372498	1.293016	city	7	1	0.941623	0.941623	0	1	0	0	CorrectCommission	0.917749	0.381736	1	0	2.636957e+01
428.658783	1.279585	mountain	10	0	0.000000	1.124724	1	0	0	0	CorrectOmission	0.048097	0.374988	1	0	2.604348e+01
429.938354	1.279568	city	6	1	1.296927	1.296927	0	1	0	0	CorrectCommission	0.956456	0.375584	1	0	2.571739e+01
431.231201	1.306097	city	2	1	1.101028	1.101028	0	1	0	0	CorrectCommission	0.076895	0.384009	1	0	2.539130e+01
432.530762	1.293036	city	6	1	1.116999	1.116999	0	1	0	0	CorrectCommission	0.007347	0.400652	1	0	2.506522e+01
433.850311	1.346068	city	9	1	1.210579	1.210579	0	1	0	0	CorrectCommission	0.500974	0.425622	1	0	2.473913e+01
435.163208	1.279737	city	7	1	1.146233	1.146233	0	1	0	0	CorrectCommission	0.161558	0.458661	1	0	2.441304e+01
436.449554	1.292903	city	10	1	1.101878	1.101878	0	1	0	0	CorrectCommission	0.072413	0.499028	1	0	2.408696e+01
437.749115	1.306265	city	2	1	1.099930	1.099930	0	1	0	0	CorrectCommission	0.082691	0.545499	1	0	2.376087e+01
439.062042	1.319564	city	9	1	1.224167	1.224167	0	1	0	0	CorrectCommission	0.572651	0.596358	1	0	2.343478e+01
440.368225	1.292820	city	8	1	0.998237	0.998237	0	1	0	0	CorrectCommission	0.619112	0.649544	1	0	2.310870e+01
441.661102	1.292905	city	7	1	1.040360	1.040360	0	1	0	0	CorrectCommission	0.396914	0.702855	1	0	2.278261e+01
442.954041	1.292999	mountain	2	0	0.000000	1.398055	1	0	0	0	CorrectOmission	1.489897	0.754226	1	0	2.245652e+01
444.240326	1.279578	city	8	1	1.574381	1.574381	0	1	0	0	CorrectCommission	2.420004	0.801890	0	0	2.213043e+01
445.539825	1.319409	city	5	1	1.072399	1.072399	0	1	0	0	CorrectCommission	0.227915	0.844543	0	0	2.180435e+01
446.852722	1.306373	city	2	1	0.933387	0.933387	0	1	0	0	CorrectCommission	0.961191	0.881454	0	0	2.147826e+01
448.165649	1.319473	city	5	1	1.152096	1.152096	0	1	0	0	CorrectCommission	0.192482	0.912433	0	0	2.115217e+01
449.471893	1.293026	city	6	1	1.433008	1.433008	0	1	0	0	CorrectCommission	1.674272	0.937836	0	0	2.082609e+01
450.791534	1.346237	city	7	1	1.120142	1.120142	0	1	0	0	CorrectCommission	0.023926	0.958453	0	0	2.050000e+01
452.117737	1.306199	city	2	1	0.927725	0.927725	0	1	0	0	CorrectCommission	0.991056	0.975520	0	0	2.017391e+01
453.423981	1.306256	mountain	7	1	0.835111	0.835111	0	0	1	0	CommissionError	1.479591	0.990526	0	0	1.984783e+01
454.716888	1.279564	city	3	1	1.428716	1.428716	0	1	0	0	CorrectCommission	1.651635	1.005145	0	0	1.952174e+01
456.003113	1.292902	city	6	1	1.367857	1.367857	0	1	0	0	CorrectCommission	1.330609	1.021071	0	0	1.919565e+01
457.289276	1.279438	city	3	1	1.351657	1.351657	0	1	0	0	CorrectCommission	1.245152	1.039829	0	0	1.886957e+01
458.595520	1.333020	city	5	1	1.161100	1.161100	0	1	0	0	CorrectCommission	0.239976	1.062405	0	0	1.854348e+01
459.915161	1.306277	city	9	1	0.988395	0.988395	0	1	0	0	CorrectCommission	0.671031	1.089072	0	0	1.821739e+01
461.214752	1.292933	city	6	1	1.071553	1.071553	0	1	0	0	CorrectCommission	0.232375	1.119106	0	0	1.789130e+01
462.507660	1.292888	city	9	1	1.474792	1.474792	0	1	0	0	CorrectCommission	1.894680	1.150737	0	0	1.756522e+01
463.847229	1.386197	city	7	1	1.265209	1.265209	0	1	0	0	CorrectCommission	0.789144	1.181209	0	0	1.723913e+01
465.186768	1.292900	city	1	1	1.134199	1.134199	0	1	0	0	CorrectCommission	0.098079	1.207187	0	0	1.691304e+01
466.479645	1.292871	city	10	1	1.138994	1.138994	0	1	0	0	CorrectCommission	0.123372	1.225202	0	0	1.658696e+01
467.772552	1.292963	city	7	1	1.650012	1.650012	0	1	0	0	CorrectCommission	2.818956	1.232243	0	0	1.626087e+01
469.072083	1.306063	city	6	1	1.975632	1.975632	0	1	0	0	CorrectCommission	4.536578	1.226250	0	0	1.593478e+01
470.371613	1.293022	city	7	1	1.687690	1.687690	0	1	0	0	CorrectCommission	3.017702	1.206580	0	0	1.560870e+01
471.677948	1.319622	city	1	1	1.141761	1.141761	0	1	0	0	CorrectCommission	0.137969	1.174167	0	0	1.528261e+01
473.004120	1.332735	city	5	1	1.221559	1.221559	0	1	0	0	CorrectCommission	0.558897	1.131309	0	0	1.495652e+01
474.310272	1.279562	city	9	1	1.086832	1.086832	0	1	0	0	CorrectCommission	0.151780	1.081291	0	0	1.463043e+01
475.596527	1.292923	city	10	1	0.988440	0.988440	0	1	0	0	CorrectCommission	0.670791	1.027885	0	0	1.430435e+01
476.909485	1.332989	city	6	1	1.209309	1.209309	0	1	0	0	CorrectCommission	0.494275	0.974785	0	0	1.397826e+01
478.235748	1.319550	city	8	1	1.017106	1.017106	0	1	0	0	CorrectCommission	0.519581	0.925250	0	0	1.365217e+01
479.562012	1.332974	city	2	1	1.052154	1.052154	0	1	0	0	CorrectCommission	0.334706	0.881927	0	0	1.332609e+01
483.334045	6.211131	break	0	0	0.000000	1.409710	0	0	0	0	ThoughtProbe	1.551379	0.846744	0	13	13
487.086151	1.293051	city	5	1	1.596775	1.596775	0	1	0	0	CorrectCommission	2.538132	0.820991	0	0	1.520588e+01
488.419128	1.372890	city	1	1	1.120347	1.120347	0	1	0	0	CorrectCommission	0.025010	0.805463	0	0	1.741176e+01
489.772003	1.332867	city	3	1	1.185639	1.185639	0	1	0	0	CorrectCommission	0.369418	0.800608	0	0	1.961765e+01
491.098236	1.319589	city	1	1	1.173311	1.173311	0	1	0	0	CorrectCommission	0.304392	0.806369	0	0	2.182353e+01
492.411133	1.306216	city	9	1	1.209666	1.209666	0	1	0	0	CorrectCommission	0.496160	0.822245	0	0	2.402941e+01
493.704041	1.279600	mountain	1	0	0.000000	1.173994	1	0	0	0	CorrectOmission	0.307995	0.847159	0	0	2.623529e+01
494.983643	1.279611	city	3	1	1.089700	1.089700	0	1	0	0	CorrectCommission	0.136650	0.879445	0	0	2.844118e+01
496.269806	1.292711	city	8	1	0.980188	0.980188	0	1	0	0	CorrectCommission	0.714319	0.916821	0	0	3.064706e+01
497.556030	1.279760	city	9	1	1.504176	1.504176	0	1	0	0	CorrectCommission	2.049682	0.956569	0	0	3.285294e+01
498.889008	1.386194	city	5	1	0.839411	0.839411	0	1	0	0	CorrectCommission	1.456907	0.995735	0	0	3.505882e+01
500.248566	1.332892	city	1	1	0.938047	0.938047	0	1	0	0	CorrectCommission	0.936608	1.031451	0	0	3.726471e+01
501.588135	1.346259	city	8	1	1.300866	1.300866	0	1	0	0	CorrectCommission	0.977232	1.061167	0	0	3.947059e+01
502.927704	1.332875	city	10	1	1.182602	1.182602	0	1	0	0	CorrectCommission	0.353401	1.082928	0	0	4.167647e+01
504.233917	1.279562	city	1	1	1.489123	1.489123	0	1	0	0	CorrectCommission	1.970279	1.095654	0	0	4.388235e+01
505.540161	1.332922	city	7	1	1.699997	1.699997	0	1	0	0	CorrectCommission	3.082620	1.099178	0	0	4.608824e+01
506.886292	1.359371	city	8	1	1.060975	1.060975	0	1	0	0	CorrectCommission	0.288175	1.094219	0	0	4.829412e+01
508.219177	1.306395	city	3	1	0.993091	0.993091	0	1	0	0	CorrectCommission	0.646256	1.082356	0	0	5.050000e+01
509.532135	1.319482	city	9	1	0.789417	0.789417	0	1	0	0	CorrectCommission	1.720621	1.065613	0	0	5.270588e+01
510.851715	1.319666	mountain	2	0	0.000000	1.010257	1	0	0	0	CorrectOmission	0.555710	1.046203	0	0	5.491176e+01
512.177979	1.332897	city	3	1	1.210550	1.210550	0	1	0	0	CorrectCommission	0.500823	1.026267	0	0	5.711765e+01
513.524109	1.359381	city	8	1	0.945239	0.945239	0	1	0	0	CorrectCommission	0.898673	1.007545	0	0	5.932353e+01
514.877014	1.346375	city	4	1	0.824268	0.824268	0	1	0	0	CorrectCommission	1.536785	0.991165	0	0	6.152941e+01
516.196655	1.292899	city	2	1	1.187143	1.187143	0	1	0	0	CorrectCommission	0.377353	0.977516	0	0	6.373529e+01
517.496216	1.306255	city	4	1	1.258588	1.258588	0	1	0	0	CorrectCommission	0.754218	0.966352	0	0	6.594118e+01
518.789062	1.279430	city	10	1	0.857487	0.857487	0	1	0	0	CorrectCommission	1.361558	0.956798	0	0	6.814706e+01
520.081970	1.306403	city	1	1	1.273984	1.273984	0	1	0	0	CorrectCommission	0.835436	0.947571	0	0	7.035294e+01
521.388306	1.306214	city	4	1	1.048159	1.048159	0	1	0	0	CorrectCommission	0.355777	0.937199	0	0	7.255882e+01
522.701172	1.319562	city	1	1	0.902244	0.902244	0	1	0	0	CorrectCommission	1.125469	0.924289	0	0	7.476471e+01
524.000732	1.279606	city	2	1	1.482557	1.482557	0	1	0	0	CorrectCommission	1.935643	0.907721	0	0	7.697059e+01
525.307007	1.332870	city	3	1	1.392192	1.392192	0	1	0	0	CorrectCommission	1.458974	0.886832	0	0	7.917647e+01
526.633179	1.319562	city	4	1	1.214227	1.214227	0	1	0	0	CorrectCommission	0.520218	0.861509	0	0	8.138235e+01
527.932678	1.279440	city	2	1	1.071487	1.071487	0	1	0	0	CorrectCommission	0.232726	0.832255	0	0	8.358824e+01
529.218933	1.293066	city	6	1	1.351653	1.351653	0	1	0	0	CorrectCommission	1.245130	0.800085	0	0	8.579412e+01
533.510925	7.290873	break	0	0	1.260882	1.260882	0	0	0	0	ThoughtProbe	0.766323	0.766323	1	88	88
