onset	duration	trial_type	image_type	Press	ReactionTime	ReactionTime_Interpolated	CorrectOmission	CorrectCommission	CommissionError	OmissionError	response_type	nonsmoothVarianceTimeCourse	VarianceTimeCourse	In_the_Zone	ThoughtProbe	ThoughtProbe_Interpolated
0.653034	1.279431	city	6	1	1.630640	1.630640	0	1	0	0	CorrectCommission	0.545452	0.545452	1	0	71
1.932636	1.279773	city	10	1	1.767683	1.767683	0	1	0	0	CorrectCommission	1.165415	0.529096	1	0	71
3.212287	1.279529	mountain	8	0	0.000000	1.675207	1	0	0	0	CorrectOmission	0.747067	0.512820	1	0	71
4.491841	1.279579	city	5	1	1.555013	1.555013	0	1	0	0	CorrectCommission	0.203330	0.496763	1	0	71
5.771355	1.279451	city	9	1	1.608904	1.608904	0	1	0	0	CorrectCommission	0.447125	0.481133	1	0	71
7.050931	1.279700	city	8	1	1.605093	1.605093	0	1	0	0	CorrectCommission	0.429882	0.466187	1	0	71
8.337238	1.292914	city	2	1	1.462529	1.462529	0	1	0	0	CorrectCommission	0.215054	0.452259	1	0	71
9.623485	1.279579	city	7	1	1.402241	1.402241	0	1	0	0	CorrectCommission	0.487786	0.439713	1	0	71
10.903075	1.279601	city	2	1	1.297035	1.297035	0	1	0	0	CorrectCommission	0.963724	0.428897	1	0	71
12.189252	1.292754	city	6	1	1.510915	1.510915	0	1	0	0	CorrectCommission	0.003839	0.420062	1	0	71
13.475489	1.279718	mountain	4	0	0.000000	1.593576	1	0	0	0	CorrectOmission	0.377781	0.413361	1	0	71
14.768463	1.306231	city	3	1	1.575427	1.575427	0	1	0	0	CorrectCommission	0.295681	0.408752	1	0	71
16.068033	1.292911	city	5	1	1.486882	1.486882	0	1	0	0	CorrectCommission	0.104884	0.406003	1	0	71
17.354208	1.279439	city	4	1	1.551619	1.551619	0	1	0	0	CorrectCommission	0.187974	0.404700	1	0	71
18.633774	1.279691	city	5	1	1.718449	1.718449	0	1	0	0	CorrectCommission	0.942689	0.404297	1	0	71
19.913431	1.279624	city	1	1	1.604532	1.604532	0	1	0	0	CorrectCommission	0.427346	0.404148	1	0	71
21.192959	1.279432	city	5	1	1.607592	1.607592	0	1	0	0	CorrectCommission	0.441187	0.403639	1	0	71
22.472488	1.279627	city	8	1	1.550952	1.550952	0	1	0	0	CorrectCommission	0.184957	0.402269	1	0	71
23.752134	1.279662	city	1	1	1.657552	1.657552	0	1	0	0	CorrectCommission	0.667199	0.399729	1	0	71
25.031752	1.279576	city	2	1	1.573335	1.573335	0	1	0	0	CorrectCommission	0.286216	0.395955	1	0	71
26.337976	1.332872	mountain	6	1	1.561977	1.561977	0	0	1	0	CommissionError	0.234834	0.391221	1	0	71
27.644156	1.279487	city	10	1	1.657868	1.657868	0	1	0	0	CorrectCommission	0.668632	0.386136	1	0	71
28.923702	1.279607	city	9	1	1.686176	1.686176	0	1	0	0	CorrectCommission	0.796689	0.381589	1	0	71
30.203339	1.279666	city	8	1	1.444504	1.444504	0	1	0	0	CorrectCommission	0.296595	0.378687	1	0	71
31.482925	1.279507	city	2	1	1.507743	1.507743	0	1	0	0	CorrectCommission	0.010511	0.378675	1	0	71
32.762505	1.279649	city	3	1	1.556709	1.556709	0	1	0	0	CorrectCommission	0.211003	0.382827	1	0	71
34.042130	1.279602	city	8	1	1.558309	1.558309	0	1	0	0	CorrectCommission	0.218240	0.392287	1	0	71
35.328297	1.292735	city	1	1	1.424097	1.424097	0	1	0	0	CorrectCommission	0.388914	0.407952	1	0	71
36.621117	1.292904	city	5	1	1.531737	1.531737	0	1	0	0	CorrectCommission	0.098032	0.430386	1	0	71
37.927444	1.319746	city	2	1	1.601414	1.601414	0	1	0	0	CorrectCommission	0.413241	0.459764	1	0	71
39.227108	1.279581	city	4	1	1.631119	1.631119	0	1	0	0	CorrectCommission	0.547623	0.495801	1	0	71
40.513336	1.292883	city	7	1	1.492128	1.492128	0	1	0	0	CorrectCommission	0.081151	0.537808	1	0	71
41.806164	1.292768	city	9	1	1.361979	1.361979	0	1	0	0	CorrectCommission	0.669926	0.584675	1	0	71
43.092342	1.279589	city	7	1	1.686010	1.686010	0	1	0	0	CorrectCommission	0.795941	0.634906	1	0	71
44.398567	1.332859	city	8	1	1.353677	1.353677	0	1	0	0	CorrectCommission	0.707483	0.686692	1	0	71
45.704868	1.279744	city	10	1	1.393323	1.393323	0	1	0	0	CorrectCommission	0.528132	0.737994	1	0	71
47.004520	1.319564	city	6	1	1.804625	1.804625	0	1	0	0	CorrectCommission	1.332535	0.786599	0	0	71
48.310699	1.292791	city	4	1	1.629582	1.629582	0	1	0	0	CorrectCommission	0.540670	0.830240	0	0	71
49.596958	1.279728	city	6	1	1.565210	1.565210	0	1	0	0	CorrectCommission	0.249460	0.866824	0	0	71
50.236824	10.289919	break	0	0	0.000000	1.727690	0	0	0	0	ThoughtProbe	0.984492	0.894628	0	71	71
61.166534	1.279586	city	3	0	0.000000	1.929780	0	0	0	1	OmissionError	1.898718	0.912495	0	0	7.041176e+01
62.446136	1.279615	city	9	1	1.984241	1.984241	0	1	0	0	CorrectCommission	2.145088	0.920021	0	0	6.982353e+01
63.725697	1.279508	city	8	1	1.703830	1.703830	0	1	0	0	CorrectCommission	0.876555	0.917737	0	0	6.923529e+01
65.011917	1.292933	city	2	0	0.000000	1.453111	0	0	0	1	OmissionError	0.257658	0.907135	0	0	6.864706e+01
66.298096	1.279430	city	7	1	1.260274	1.260274	0	1	0	0	CorrectCommission	1.130022	0.890535	0	0	6.805882e+01
67.604294	1.332967	city	10	1	1.153510	1.153510	0	1	0	0	CorrectCommission	1.613007	0.870844	0	0	6.747059e+01
68.917282	1.293008	mountain	2	0	0.000000	1.349797	1	0	0	0	CorrectOmission	0.725036	0.851218	0	0	6.688235e+01
70.210243	1.292903	city	3	1	1.593516	1.593516	0	1	0	0	CorrectCommission	0.377510	0.834653	0	0	6.629412e+01
71.509811	1.306240	city	8	1	1.629048	1.629048	0	1	0	0	CorrectCommission	0.538251	0.823517	0	0	6.570588e+01
72.809303	1.292748	city	1	1	1.481806	1.481806	0	1	0	0	CorrectCommission	0.127846	0.819164	0	0	6.511765e+01
74.102203	1.293049	city	10	1	1.367749	1.367749	0	1	0	0	CorrectCommission	0.643825	0.821733	0	0	6.452941e+01
75.395180	1.292905	city	6	1	1.533842	1.533842	0	1	0	0	CorrectCommission	0.107557	0.830044	0	0	6.394118e+01
76.701416	1.319560	city	8	1	1.414254	1.414254	0	1	0	0	CorrectCommission	0.433441	0.841791	0	0	6.335294e+01
78.027657	1.332921	city	6	1	1.316498	1.316498	0	1	0	0	CorrectCommission	0.875674	0.853863	0	0	6.276471e+01
79.333908	1.279592	city	10	1	2.013160	2.013160	0	1	0	0	CorrectCommission	2.275914	0.862814	0	0	6.217647e+01
80.626823	1.306228	mountain	3	0	0.000000	1.910913	1	0	0	0	CorrectOmission	1.813365	0.865394	0	0	6.158824e+01
81.926376	1.292876	city	1	1	1.577873	1.577873	0	1	0	0	CorrectCommission	0.306744	0.859140	0	0	61
83.225868	1.306106	city	6	1	1.582156	1.582156	0	1	0	0	CorrectCommission	0.326121	0.842785	0	0	6.041176e+01
84.518776	1.279721	city	2	0	0.000000	1.176849	0	0	0	1	OmissionError	1.507425	0.816433	0	0	5.982353e+01
85.798386	1.279495	city	10	1	0.928122	0.928122	0	1	0	0	CorrectCommission	2.632627	0.781627	0	0	5.923529e+01
87.077972	1.279679	city	5	1	1.402145	1.402145	0	1	0	0	CorrectCommission	0.488220	0.741141	1	0	5.864706e+01
88.357605	1.279581	city	9	1	1.461244	1.461244	0	1	0	0	CorrectCommission	0.220866	0.698659	1	0	5.805882e+01
89.637184	1.279577	city	2	1	1.485200	1.485200	0	1	0	0	CorrectCommission	0.112492	0.658167	1	0	5.747059e+01
90.930046	1.306142	city	8	1	1.489464	1.489464	0	1	0	0	CorrectCommission	0.093203	0.623418	1	0	5.688235e+01
92.222946	1.279656	city	4	1	1.408114	1.408114	0	1	0	0	CorrectCommission	0.461221	0.597422	1	0	5.629412e+01
93.509148	1.292756	city	10	1	1.532457	1.532457	0	1	0	0	CorrectCommission	0.101288	0.582022	1	0	5.570588e+01
94.808731	1.306416	city	8	1	1.547744	1.547744	0	1	0	0	CorrectCommission	0.170447	0.577651	1	0	5.511765e+01
96.115044	1.306207	city	9	1	1.592326	1.592326	0	1	0	0	CorrectCommission	0.372128	0.583290	1	0	5.452941e+01
97.407951	1.279604	city	2	1	1.507458	1.507458	0	1	0	0	CorrectCommission	0.011801	0.596675	1	0	5.394118e+01
98.707451	1.319396	city	3	1	1.661049	1.661049	0	1	0	0	CorrectCommission	0.683021	0.614662	1	0	5.335294e+01
100.013641	1.292984	city	4	1	1.363399	1.363399	0	1	0	0	CorrectCommission	0.663503	0.633671	1	0	5.276471e+01
101.313248	1.306221	city	1	1	1.204612	1.204612	0	1	0	0	CorrectCommission	1.381830	0.650234	1	0	5.217647e+01
102.612808	1.292914	city	4	1	1.144042	1.144042	0	1	0	0	CorrectCommission	1.655839	0.661392	1	0	5.158824e+01
106.578209	6.637884	break	0	1	1.198682	1.198682	0	0	0	0	ThoughtProbe	1.408654	0.665073	1	51	51
110.536873	1.279444	city	10	1	1.570529	1.570529	0	1	0	0	CorrectCommission	0.273522	0.660260	1	0	5.080435e+01
111.836464	1.319739	city	4	1	1.560846	1.560846	0	1	0	0	CorrectCommission	0.229717	0.647025	1	0	5.060870e+01
113.149376	1.306082	city	10	1	1.444295	1.444295	0	1	0	0	CorrectCommission	0.297541	0.626319	1	0	5.041304e+01
114.455597	1.306366	mountain	5	0	0.000000	1.671819	1	0	0	0	CorrectOmission	0.731741	0.599830	1	0	5.021739e+01
115.748535	1.279509	city	2	1	1.858632	1.858632	0	1	0	0	CorrectCommission	1.576854	0.569704	1	0	5.002174e+01
117.054695	1.332806	city	10	1	1.619949	1.619949	0	1	0	0	CorrectCommission	0.497090	0.538265	1	0	4.982609e+01
118.367630	1.293069	city	9	1	1.523964	1.523964	0	1	0	0	CorrectCommission	0.062869	0.507809	1	0	4.963043e+01
119.680573	1.332817	city	6	1	1.463402	1.463402	0	1	0	0	CorrectCommission	0.211103	0.480359	1	0	4.943478e+01
120.986824	1.279675	mountain	2	0	0.000000	1.504570	1	0	0	0	CorrectOmission	0.024865	0.457583	1	0	4.923913e+01
122.266449	1.279577	city	4	1	1.524942	1.524942	0	1	0	0	CorrectCommission	0.067292	0.440720	1	0	4.904348e+01
123.566002	1.319523	city	9	1	1.401990	1.401990	0	1	0	0	CorrectCommission	0.488924	0.430530	1	0	4.884783e+01
124.865562	1.279598	mountain	1	0	0.000000	1.360487	1	0	0	0	CorrectOmission	0.676676	0.427307	1	0	4.865217e+01
126.145157	1.279594	city	6	1	1.372480	1.372480	0	1	0	0	CorrectCommission	0.622423	0.430918	1	0	4.845652e+01
127.424736	1.279571	city	8	1	1.410014	1.410014	0	1	0	0	CorrectCommission	0.452624	0.440855	1	0	4.826087e+01
128.717636	1.306234	city	1	1	1.524710	1.524710	0	1	0	0	CorrectCommission	0.066246	0.456231	1	0	4.806522e+01
130.010544	1.279581	city	4	1	1.551168	1.551168	0	1	0	0	CorrectCommission	0.185935	0.475829	1	0	4.786957e+01
131.316711	1.332735	city	10	1	1.391503	1.391503	0	1	0	0	CorrectCommission	0.536363	0.498126	1	0	4.767391e+01
132.649612	1.333074	city	2	1	1.471218	1.471218	0	1	0	0	CorrectCommission	0.175748	0.521342	1	0	4.747826e+01
133.969269	1.306230	city	4	1	1.555656	1.555656	0	1	0	0	CorrectCommission	0.206240	0.543623	1	0	4.728261e+01
135.268829	1.292903	city	9	1	1.327302	1.327302	0	1	0	0	CorrectCommission	0.826799	0.563185	1	0	4.708696e+01
136.568390	1.306216	city	1	1	1.168902	1.168902	0	1	0	0	CorrectCommission	1.543377	0.578510	1	0	4.689130e+01
137.861237	1.279466	city	3	1	1.408764	1.408764	0	1	0	0	CorrectCommission	0.458278	0.588574	1	0	4.669565e+01
139.160828	1.319731	city	5	1	1.273442	1.273442	0	1	0	0	CorrectCommission	1.070454	0.593028	1	0	4.650000e+01
140.467117	1.292841	city	1	1	1.324134	1.324134	0	1	0	0	CorrectCommission	0.841133	0.592186	1	0	4.630435e+01
141.759995	1.292933	city	3	1	1.320654	1.320654	0	1	0	0	CorrectCommission	0.856874	0.586994	1	0	4.610870e+01
143.052948	1.292959	city	8	1	1.441211	1.441211	0	1	0	0	CorrectCommission	0.311493	0.578903	1	0	4.591304e+01
144.359116	1.319367	city	7	1	1.470465	1.470465	0	1	0	0	CorrectCommission	0.179150	0.569583	1	0	4.571739e+01
145.665253	1.292918	city	6	1	1.530919	1.530919	0	1	0	0	CorrectCommission	0.094333	0.560728	1	0	4.552174e+01
146.971512	1.319590	city	8	1	1.688384	1.688384	0	1	0	0	CorrectCommission	0.806681	0.553802	1	0	4.532609e+01
148.324463	1.386321	mountain	2	0	0.000000	1.660806	1	0	0	0	CorrectOmission	0.681918	0.549843	1	0	4.513043e+01
149.670761	1.306263	city	10	1	1.554906	1.554906	0	1	0	0	CorrectCommission	0.202845	0.549444	1	0	4.493478e+01
150.970322	1.292882	city	3	1	1.477409	1.477409	0	1	0	0	CorrectCommission	0.147739	0.552742	1	0	4.473913e+01
152.256485	1.279435	city	9	1	1.316294	1.316294	0	1	0	0	CorrectCommission	0.876599	0.559511	1	0	4.454348e+01
153.536072	1.279748	city	1	1	1.483230	1.483230	0	1	0	0	CorrectCommission	0.121407	0.569360	1	0	4.434783e+01
154.815735	1.279555	city	6	1	1.310219	1.310219	0	1	0	0	CorrectCommission	0.904082	0.581879	1	0	4.415217e+01
156.121902	1.332788	city	7	1	1.221547	1.221547	0	1	0	0	CorrectCommission	1.305218	0.596793	1	0	4.395652e+01
157.428146	1.279702	city	2	1	1.529348	1.529348	0	1	0	0	CorrectCommission	0.087225	0.614083	1	0	4.376087e+01
158.707703	1.279426	city	4	1	1.342863	1.342863	0	1	0	0	CorrectCommission	0.756405	0.634035	1	0	4.356522e+01
160.007294	1.319730	city	10	1	1.285115	1.285115	0	1	0	0	CorrectCommission	1.017646	0.657092	1	0	4.336957e+01
161.306992	1.279676	city	8	1	1.461066	1.461066	0	1	0	0	CorrectCommission	0.221671	0.683740	1	0	4.317391e+01
162.586472	1.279294	city	1	1	1.394876	1.394876	0	1	0	0	CorrectCommission	0.521104	0.714334	1	0	4.297826e+01
163.892578	1.332895	city	5	1	1.578051	1.578051	0	1	0	0	CorrectCommission	0.307551	0.748848	1	0	4.278261e+01
165.205475	1.292916	city	9	1	1.690951	1.690951	0	1	0	0	CorrectCommission	0.818291	0.786749	0	0	4.258696e+01
166.491806	1.279733	city	2	1	1.512747	1.512747	0	1	0	0	CorrectCommission	0.012124	0.826898	0	0	4.239130e+01
167.778061	1.292778	city	8	1	1.913402	1.913402	0	1	0	0	CorrectCommission	1.824625	0.867609	0	0	4.219565e+01
171.210220	5.571561	break	0	0	0.000000	1.631233	0	0	0	0	ThoughtProbe	0.548138	0.906678	0	42	42
174.649155	1.306307	city	2	1	1.210563	1.210563	0	1	0	0	CorrectCommission	1.354909	0.941697	0	0	4.212500e+01
175.942032	1.279439	city	9	1	1.195712	1.195712	0	1	0	0	CorrectCommission	1.422091	0.970221	0	0	4.225000e+01
177.228226	1.292942	city	10	1	1.651597	1.651597	0	1	0	0	CorrectCommission	0.640262	0.990071	0	0	4.237500e+01
178.541199	1.333021	city	2	1	1.798568	1.798568	0	1	0	0	CorrectCommission	1.305134	0.999660	0	0	4.250000e+01
179.860840	1.306242	city	10	1	1.694472	1.694472	0	1	0	0	CorrectCommission	0.834218	0.998160	0	0	4.262500e+01
181.160400	1.292882	mountain	7	1	1.745417	1.745417	0	0	1	0	CommissionError	1.064689	0.985694	0	0	4.275000e+01
182.459976	1.306262	mountain	5	1	0.785592	0.785592	0	0	1	0	CommissionError	3.277410	0.963456	0	0	4.287500e+01
183.752914	1.279638	city	1	1	1.623962	1.623962	0	1	0	0	CorrectCommission	0.515245	0.933592	0	0	43
185.045822	1.306158	city	5	1	1.394218	1.394218	0	1	0	0	CorrectCommission	0.524084	0.899196	0	0	4.312500e+01
186.358688	1.319588	city	8	1	1.563888	1.563888	0	1	0	0	CorrectCommission	0.243478	0.863881	0	0	4.325000e+01
187.671585	1.306207	city	9	1	1.696827	1.696827	0	1	0	0	CorrectCommission	0.844876	0.831474	0	0	4.337500e+01
189.004471	1.359562	city	6	1	1.272601	1.272601	0	1	0	0	CorrectCommission	1.074258	0.805596	0	0	4.350000e+01
190.324036	1.279577	city	3	1	1.489210	1.489210	0	1	0	0	CorrectCommission	0.094351	0.789275	0	0	4.362500e+01
191.630234	1.332810	city	7	1	1.465399	1.465399	0	1	0	0	CorrectCommission	0.202072	0.784623	0	0	4.375000e+01
192.956467	1.319648	city	8	1	1.589948	1.589948	0	1	0	0	CorrectCommission	0.361370	0.792539	0	0	4.387500e+01
194.282730	1.332898	city	6	1	1.239181	1.239181	0	1	0	0	CorrectCommission	1.225444	0.812655	0	0	44
195.588898	1.279431	city	9	1	1.544268	1.544268	0	1	0	0	CorrectCommission	0.154720	0.843326	0	0	4.412500e+01
196.908432	1.359625	city	5	1	1.285343	1.285343	0	1	0	0	CorrectCommission	1.016616	0.881897	0	0	4.425000e+01
198.234741	1.293004	city	3	1	1.425336	1.425336	0	1	0	0	CorrectCommission	0.383309	0.924893	0	0	4.437500e+01
199.527679	1.292886	city	8	1	1.356480	1.356480	0	1	0	0	CorrectCommission	0.694804	0.968624	0	0	4.450000e+01
200.820587	1.292929	city	3	1	1.175720	1.175720	0	1	0	0	CorrectCommission	1.512534	1.009544	0	0	4.462500e+01
202.113510	1.292909	city	10	1	1.330829	1.330829	0	1	0	0	CorrectCommission	0.810844	1.044803	0	0	4.475000e+01
203.406342	1.292746	city	5	0	0.000000	0.985367	0	0	0	1	OmissionError	2.373659	1.072643	0	0	4.487500e+01
204.705826	1.306218	city	1	1	0.829081	0.829081	0	1	0	0	CorrectCommission	3.080674	1.092556	0	0	45
205.998749	1.279623	city	10	1	1.551716	1.551716	0	1	0	0	CorrectCommission	0.188416	1.105372	0	0	4.512500e+01
207.291748	1.306377	city	9	1	1.814539	1.814539	0	1	0	0	CorrectCommission	1.377387	1.113008	0	0	4.525000e+01
208.604706	1.319558	city	10	1	1.623834	1.623834	0	1	0	0	CorrectCommission	0.514665	1.117901	0	0	4.537500e+01
209.924271	1.319572	city	7	1	1.759796	1.759796	0	1	0	0	CorrectCommission	1.129737	1.122583	0	0	4.550000e+01
211.237167	1.306214	city	10	1	1.448854	1.448854	0	1	0	0	CorrectCommission	0.276917	1.128987	0	0	4.562500e+01
212.536697	1.292832	city	6	1	1.426686	1.426686	0	1	0	0	CorrectCommission	0.377203	1.138160	0	0	4.575000e+01
213.849609	1.332995	mountain	1	1	1.186934	1.186934	0	0	1	0	CommissionError	1.461804	1.149889	0	0	4.587500e+01
215.175812	1.319428	city	7	1	1.630537	1.630537	0	1	0	0	CorrectCommission	0.544987	1.162743	0	0	46
216.488724	1.306383	city	10	1	1.790091	1.790091	0	1	0	0	CorrectCommission	1.266786	1.174359	0	0	4.612500e+01
217.801682	1.319534	city	2	1	1.804343	1.804343	0	1	0	0	CorrectCommission	1.331259	1.181838	0	0	4.625000e+01
219.114578	1.306258	city	7	1	1.980868	1.980868	0	1	0	0	CorrectCommission	2.129829	1.182334	0	0	4.637500e+01
220.420761	1.306123	city	10	1	1.954474	1.954474	0	1	0	0	CorrectCommission	2.010430	1.173530	0	0	4.650000e+01
221.760239	1.372830	city	4	1	2.004956	2.004956	0	1	0	0	CorrectCommission	2.238803	1.154081	0	0	4.662500e+01
223.099808	1.306287	city	10	1	1.534661	1.534661	0	1	0	0	CorrectCommission	0.111260	1.123793	0	0	4.675000e+01
224.419434	1.332989	city	7	1	1.870929	1.870929	0	1	0	0	CorrectCommission	1.632486	1.083708	0	0	4.687500e+01
225.085938	8.370440	break	0	0	0.000000	1.845966	0	0	0	0	ThoughtProbe	1.519555	1.035761	0	47	47
234.102905	1.293053	city	9	0	0.000000	1.653352	0	0	0	1	OmissionError	0.648201	0.982570	0	0	4.652941e+01
235.395813	1.292771	city	2	1	1.486671	1.486671	0	1	0	0	CorrectCommission	0.105841	0.926987	0	0	4.605882e+01
236.688721	1.293040	city	10	1	1.539503	1.539503	0	1	0	0	CorrectCommission	0.133163	0.871695	0	0	4.558824e+01
237.981644	1.292806	city	9	1	1.896314	1.896314	0	1	0	0	CorrectCommission	1.747323	0.818966	0	0	4.511765e+01
239.274475	1.292873	mountain	1	0	0.000000	1.748495	1	0	0	0	CorrectOmission	1.078613	0.770391	0	0	4.464706e+01
240.574112	1.306379	city	8	1	1.479105	1.479105	0	1	0	0	CorrectCommission	0.140067	0.726976	1	0	4.417647e+01
241.907074	1.359549	city	9	1	1.471203	1.471203	0	1	0	0	CorrectCommission	0.175814	0.689165	1	0	4.370588e+01
243.233292	1.292909	city	3	1	1.459915	1.459915	0	1	0	0	CorrectCommission	0.226879	0.657032	1	0	4.323529e+01
244.546127	1.332741	city	6	1	1.799830	1.799830	0	1	0	0	CorrectCommission	1.310843	0.630582	1	0	4.276471e+01
245.872284	1.319582	city	1	1	1.654113	1.654113	0	1	0	0	CorrectCommission	0.651643	0.609930	1	0	4.229412e+01
247.191849	1.319541	city	8	1	1.678015	1.678015	0	1	0	0	CorrectCommission	0.759773	0.595601	1	0	4.182353e+01
248.498154	1.293069	city	10	1	1.537210	1.537210	0	1	0	0	CorrectCommission	0.122793	0.588599	1	0	4.135294e+01
249.791138	1.292913	city	8	1	1.707473	1.707473	0	1	0	0	CorrectCommission	0.893037	0.590439	1	0	4.088235e+01
251.097290	1.319400	city	9	1	1.664593	1.664593	0	1	0	0	CorrectCommission	0.699053	0.602910	1	0	4.041176e+01
252.430191	1.346383	city	1	1	1.425131	1.425131	0	1	0	0	CorrectCommission	0.384237	0.627844	1	0	3.994118e+01
253.743179	1.279602	city	6	1	1.524661	1.524661	0	1	0	0	CorrectCommission	0.066023	0.666739	1	0	3.947059e+01
255.042755	1.319542	city	10	1	1.431517	1.431517	0	1	0	0	CorrectCommission	0.355349	0.720324	1	0	39
256.342255	1.279447	city	8	1	1.460954	1.460954	0	1	0	0	CorrectCommission	0.222177	0.788218	0	0	3.852941e+01
257.635132	1.306297	city	5	1	1.639616	1.639616	0	1	0	0	CorrectCommission	0.586060	0.868681	0	0	3.805882e+01
258.934784	1.293006	city	9	1	1.669900	1.669900	0	1	0	0	CorrectCommission	0.723062	0.958544	0	0	3.758824e+01
260.254395	1.346228	city	6	1	1.540404	1.540404	0	1	0	0	CorrectCommission	0.137239	1.053356	0	0	3.711765e+01
261.573883	1.292734	city	8	1	1.559584	1.559584	0	1	0	0	CorrectCommission	0.224010	1.147768	0	0	3.664706e+01
262.893341	1.346238	mountain	5	1	2.047252	2.047252	0	0	1	0	CommissionError	2.430141	1.236089	0	0	3.617647e+01
264.206360	1.279745	city	1	1	1.026701	1.026701	0	1	0	0	CorrectCommission	2.186672	1.312876	0	0	3.570588e+01
265.492615	1.292798	city	6	1	0.564741	0.564741	0	1	0	0	CorrectCommission	4.276505	1.373654	0	0	3.523529e+01
266.792175	1.306333	city	7	1	1.588934	1.588934	0	1	0	0	CorrectCommission	0.356781	1.415267	0	0	3.476471e+01
268.111877	1.333055	city	9	1	1.141630	1.141630	0	1	0	0	CorrectCommission	1.666749	1.436384	0	0	3.429412e+01
269.437958	1.319122	city	1	1	0.978919	0.978919	0	1	0	0	CorrectCommission	2.402828	1.437298	0	0	3.382353e+01
270.737457	1.279859	city	10	1	1.211114	1.211114	0	1	0	0	CorrectCommission	1.352414	1.419888	0	0	3.335294e+01
272.037109	1.319449	city	6	1	1.590956	1.590956	0	1	0	0	CorrectCommission	0.365931	1.387303	0	0	3.288235e+01
273.343262	1.292877	city	5	1	1.722624	1.722624	0	1	0	0	CorrectCommission	0.961577	1.343454	0	0	3.241176e+01
274.656158	1.332917	city	9	1	2.316599	2.316599	0	1	0	0	CorrectCommission	3.648627	1.292552	0	0	3.194118e+01
275.989075	1.332863	city	3	1	1.775324	1.775324	0	1	0	0	CorrectCommission	1.199981	1.238623	0	0	3.147059e+01
276.655487	10.396577	break	0	0	0.000000	1.571707	0	0	0	0	ThoughtProbe	0.278853	1.185334	0	31	31
287.698608	1.293054	mountain	9	0	0.000000	1.532884	1	0	0	0	CorrectOmission	0.103223	1.135559	0	0	3.082353e+01
288.998230	1.306229	city	3	1	1.485988	1.485988	0	1	0	0	CorrectCommission	0.108929	1.091316	0	0	3.064706e+01
290.311127	1.319548	city	5	1	1.258152	1.258152	0	1	0	0	CorrectCommission	1.139621	1.053761	0	0	3.047059e+01
291.637360	1.332923	city	2	1	1.059224	1.059224	0	1	0	0	CorrectCommission	2.039543	1.023304	0	0	3.029412e+01
292.943604	1.279576	city	6	1	1.340349	1.340349	0	1	0	0	CorrectCommission	0.767778	0.999789	0	0	3.011765e+01
294.244049	1.321288	city	1	1	1.202290	1.202290	0	1	0	0	CorrectCommission	1.392333	0.982767	0	0	2.994118e+01
295.556885	1.304381	city	3	1	1.390829	1.390829	0	1	0	0	CorrectCommission	0.539413	0.971584	0	0	2.976471e+01
296.882263	1.346384	city	8	1	1.298760	1.298760	0	1	0	0	CorrectCommission	0.955917	0.965574	0	0	2.958824e+01
298.195251	1.279574	city	1	1	1.321166	1.321166	0	1	0	0	CorrectCommission	0.854558	0.964056	0	0	2.941176e+01
299.534729	1.399408	city	3	1	1.278332	1.278332	0	1	0	0	CorrectCommission	1.048330	0.966335	0	0	2.923529e+01
300.880859	1.292874	city	9	1	1.359250	1.359250	0	1	0	0	CorrectCommission	0.682274	0.971601	0	0	2.905882e+01
302.207153	1.359721	city	10	1	1.279105	1.279105	0	1	0	0	CorrectCommission	1.044836	0.978966	0	0	2.888235e+01
303.540161	1.306240	city	1	1	1.498087	1.498087	0	1	0	0	CorrectCommission	0.054195	0.987369	0	0	2.870588e+01
304.859650	1.332782	city	10	1	1.706209	1.706209	0	1	0	0	CorrectCommission	0.887319	0.995760	0	0	2.852941e+01
306.185791	1.319492	city	6	1	1.908851	1.908851	0	1	0	0	CorrectCommission	1.804039	1.003064	0	0	2.835294e+01
307.498718	1.306329	mountain	3	0	0.000000	1.922692	1	0	0	0	CorrectOmission	1.866650	1.008346	0	0	2.817647e+01
308.791718	1.279665	city	2	1	1.798541	1.798541	0	1	0	0	CorrectCommission	1.305014	1.010966	0	0	28
310.084656	1.306240	city	8	1	1.587211	1.587211	0	1	0	0	CorrectCommission	0.348989	1.010642	0	0	2.782353e+01
311.390900	1.306221	city	10	1	1.249455	1.249455	0	1	0	0	CorrectCommission	1.178969	1.007446	0	0	2.764706e+01
312.683746	1.279498	city	3	1	1.361191	1.361191	0	1	0	0	CorrectCommission	0.673490	1.001669	0	0	2.747059e+01
313.989929	1.332895	city	10	1	1.234498	1.234498	0	1	0	0	CorrectCommission	1.246631	0.993871	0	0	2.729412e+01
315.302826	1.292852	city	3	1	1.354212	1.354212	0	1	0	0	CorrectCommission	0.705061	0.984693	0	0	2.711765e+01
316.589020	1.279547	city	9	1	1.265483	1.265483	0	1	0	0	CorrectCommission	1.106458	0.974750	0	0	2.694118e+01
317.868591	1.279581	city	2	1	1.305511	1.305511	0	1	0	0	CorrectCommission	0.925379	0.964548	0	0	2.676471e+01
319.168182	1.319642	city	7	1	1.270936	1.270936	0	1	0	0	CorrectCommission	1.081788	0.954410	0	0	2.658824e+01
320.474609	1.293199	city	8	1	1.263723	1.263723	0	1	0	0	CorrectCommission	1.114422	0.944438	0	0	2.641176e+01
321.760895	1.279376	city	4	1	1.313600	1.313600	0	1	0	0	CorrectCommission	0.888785	0.934568	0	0	2.623529e+01
323.086975	1.372757	city	10	1	1.257593	1.257593	0	1	0	0	CorrectCommission	1.142152	0.924536	0	0	2.605882e+01
324.426544	1.306384	city	5	1	1.546141	1.546141	0	1	0	0	CorrectCommission	0.163196	0.913991	0	0	2.588235e+01
325.719513	1.279553	city	7	1	1.550168	1.550168	0	1	0	0	CorrectCommission	0.181412	0.902553	0	0	2.570588e+01
327.012390	1.306236	city	1	1	1.212446	1.212446	0	1	0	0	CorrectCommission	1.346388	0.889924	0	0	2.552941e+01
328.318573	1.306098	city	9	1	1.073079	1.073079	0	1	0	0	CorrectCommission	1.976866	0.875963	0	0	2.535294e+01
329.638123	1.333036	city	8	1	1.790370	1.790370	0	1	0	0	CorrectCommission	1.268047	0.860793	0	0	2.517647e+01
330.304657	10.782974	break	0	0	0.000000	1.670869	0	0	0	0	ThoughtProbe	0.727443	0.844841	0	25	25
341.727509	1.279738	city	7	1	1.388608	1.388608	0	1	0	0	CorrectCommission	0.549461	0.828768	0	0	2.545000e+01
343.040405	1.346071	city	6	1	1.617619	1.617619	0	1	0	0	CorrectCommission	0.486551	0.813353	0	0	2.590000e+01
344.379974	1.333059	mountain	7	0	0.000000	1.665516	1	0	0	0	CorrectOmission	0.703229	0.799375	0	0	2.635000e+01
345.686279	1.279575	city	2	1	1.620066	1.620066	0	1	0	0	CorrectCommission	0.497619	0.787476	0	0	2.680000e+01
346.985840	1.319543	city	1	1	1.569036	1.569036	0	1	0	0	CorrectCommission	0.266768	0.778069	0	0	2.725000e+01
348.305359	1.319475	mountain	1	0	0.000000	1.320675	1	0	0	0	CorrectOmission	0.856778	0.771332	0	0	2.770000e+01
349.631592	1.333009	city	5	1	1.163624	1.163624	0	1	0	0	CorrectCommission	1.567254	0.767159	0	0	2.815000e+01
350.951202	1.306216	city	3	1	1.386522	1.386522	0	1	0	0	CorrectCommission	0.558897	0.765263	1	0	2.860000e+01
352.264038	1.319423	city	5	1	1.219467	1.219467	0	1	0	0	CorrectCommission	1.314626	0.765266	1	0	2.905000e+01
353.570221	1.292986	city	9	1	1.597634	1.597634	0	1	0	0	CorrectCommission	0.396138	0.766722	0	0	2.950000e+01
354.863220	1.292989	city	1	1	1.554174	1.554174	0	1	0	0	CorrectCommission	0.199535	0.769249	0	0	2.995000e+01
356.169495	1.319580	city	4	1	1.692291	1.692291	0	1	0	0	CorrectCommission	0.824355	0.772534	0	0	3.040000e+01
357.482391	1.306205	city	7	1	1.485903	1.485903	0	1	0	0	CorrectCommission	0.109314	0.776374	0	0	3.085000e+01
358.795288	1.319613	city	6	1	1.863582	1.863582	0	1	0	0	CorrectCommission	1.599246	0.780773	0	0	3.130000e+01
360.094757	1.279323	city	8	1	1.342588	1.342588	0	1	0	0	CorrectCommission	0.757647	0.785861	0	0	3.175000e+01
361.400970	1.333106	city	2	1	1.214618	1.214618	0	1	0	0	CorrectCommission	1.336562	0.791937	0	0	3.220000e+01
362.720581	1.306086	mountain	2	0	0.000000	1.260629	1	0	0	0	CorrectOmission	1.128417	0.799343	0	0	3.265000e+01
364.026733	1.306248	city	5	1	1.436450	1.436450	0	1	0	0	CorrectCommission	0.333031	0.808376	0	0	3.310000e+01
365.346375	1.333025	city	7	1	1.697911	1.697911	0	1	0	0	CorrectCommission	0.849777	0.819104	0	0	3.355000e+01
366.666016	1.306244	city	5	1	1.530043	1.530043	0	1	0	0	CorrectCommission	0.090368	0.831197	0	0	34
367.998932	1.359558	city	9	1	1.473887	1.473887	0	1	0	0	CorrectCommission	0.163671	0.843905	0	0	3.445000e+01
369.378418	1.399423	city	6	1	1.294310	1.294310	0	1	0	0	CorrectCommission	0.976048	0.856030	0	0	3.490000e+01
370.744598	1.332966	city	1	1	1.222876	1.222876	0	1	0	0	CorrectCommission	1.299206	0.866039	0	0	3.535000e+01
372.084137	1.346101	city	4	1	1.393964	1.393964	0	1	0	0	CorrectCommission	0.525233	0.872315	0	0	3.580000e+01
373.417053	1.319747	city	3	1	1.123482	1.123482	0	1	0	0	CorrectCommission	1.748847	0.873410	0	0	3.625000e+01
374.723297	1.292728	city	9	1	1.159496	1.159496	0	1	0	0	CorrectCommission	1.585929	0.868248	0	0	3.670000e+01
376.022858	1.306399	city	6	1	1.218061	1.218061	0	1	0	0	CorrectCommission	1.320990	0.856388	0	0	3.715000e+01
377.315765	1.279431	city	5	1	1.284809	1.284809	0	1	0	0	CorrectCommission	1.019030	0.838054	0	0	3.760000e+01
378.615265	1.319551	city	7	1	1.579657	1.579657	0	1	0	0	CorrectCommission	0.314814	0.814098	0	0	3.805000e+01
379.941559	1.333058	city	4	1	1.625693	1.625693	0	1	0	0	CorrectCommission	0.523077	0.785927	0	0	3.850000e+01
381.261230	1.306241	city	6	1	1.583109	1.583109	0	1	0	0	CorrectCommission	0.330434	0.755311	1	0	3.895000e+01
382.580780	1.332864	city	4	1	1.540887	1.540887	0	1	0	0	CorrectCommission	0.139428	0.724235	1	0	3.940000e+01
383.927002	1.359586	city	1	1	1.144071	1.144071	0	1	0	0	CorrectCommission	1.655705	0.694769	1	0	3.985000e+01
385.253143	1.292693	city	6	1	1.256852	1.256852	0	1	0	0	CorrectCommission	1.145505	0.668863	1	0	4.030000e+01
386.539398	1.279811	city	7	1	1.434639	1.434639	0	1	0	0	CorrectCommission	0.341225	0.648345	1	0	4.075000e+01
387.832397	1.306210	city	4	1	1.559678	1.559678	0	1	0	0	CorrectCommission	0.224432	0.634706	1	0	4.120000e+01
389.145325	1.319614	city	6	1	1.378379	1.378379	0	1	0	0	CorrectCommission	0.595736	0.629006	1	0	4.165000e+01
390.451569	1.292884	city	4	1	1.373230	1.373230	0	1	0	0	CorrectCommission	0.619027	0.631672	1	0	4.210000e+01
391.751099	1.306214	city	2	1	1.452575	1.452575	0	1	0	0	CorrectCommission	0.260082	0.642415	1	0	4.255000e+01
392.404205	9.450190	break	0	0	0.000000	1.515597	0	0	0	0	ThoughtProbe	0.025018	0.660149	1	43	43
402.507477	1.306111	city	7	1	1.565529	1.565529	0	1	0	0	CorrectCommission	0.250903	0.682984	1	0	4.291304e+01
403.813660	1.306251	city	3	1	1.605606	1.605606	0	1	0	0	CorrectCommission	0.432205	0.708390	1	0	4.282609e+01
405.139984	1.346397	city	8	1	1.755626	1.755626	0	1	0	0	CorrectCommission	1.110872	0.733440	1	0	4.273913e+01
406.492889	1.359422	city	10	1	1.274956	1.274956	0	1	0	0	CorrectCommission	1.063603	0.755130	1	0	4.265217e+01
407.825775	1.306358	city	8	1	1.745559	1.745559	0	1	0	0	CorrectCommission	1.065331	0.770777	0	0	4.256522e+01
409.145386	1.332901	mountain	9	0	0.000000	1.896561	1	0	0	0	CorrectOmission	1.748440	0.778333	0	0	4.247826e+01
410.464874	1.306077	mountain	3	0	0.000000	1.838616	1	0	0	0	CorrectOmission	1.486305	0.776608	0	0	4.239130e+01
411.757782	1.279713	city	5	1	1.682377	1.682377	0	1	0	0	CorrectCommission	0.779504	0.765405	0	0	4.230435e+01
413.084106	1.372908	city	7	1	1.538498	1.538498	0	1	0	0	CorrectCommission	0.128617	0.745441	1	0	4.221739e+01
414.436981	1.332892	city	2	1	1.266060	1.266060	0	1	0	0	CorrectCommission	1.103849	0.718251	1	0	4.213043e+01
415.743225	1.279558	mountain	8	0	0.000000	1.484606	1	0	0	0	CorrectOmission	0.115182	0.685915	1	0	4.204348e+01
417.022797	1.279601	city	8	1	1.737165	1.737165	0	1	0	0	CorrectCommission	1.027359	0.650891	1	0	4.195652e+01
418.322327	1.319433	city	9	0	0.000000	1.566769	0	0	0	1	OmissionError	0.256513	0.615783	1	0	4.186957e+01
419.641876	1.319683	city	1	1	1.372606	1.372606	0	1	0	0	CorrectCommission	0.621851	0.583189	1	0	4.178261e+01
420.954773	1.306092	city	2	1	1.553864	1.553864	0	1	0	0	CorrectCommission	0.198133	0.555525	1	0	4.169565e+01
422.280975	1.346362	city	4	1	1.753324	1.753324	0	1	0	0	CorrectCommission	1.100458	0.534964	1	0	4.160870e+01
423.620605	1.332893	city	5	1	1.428148	1.428148	0	1	0	0	CorrectCommission	0.370587	0.523278	1	0	4.152174e+01
424.947723	1.321330	city	8	1	1.391696	1.391696	0	1	0	0	CorrectCommission	0.535491	0.521735	1	0	4.143478e+01
426.253967	1.291168	city	7	1	1.539750	1.539750	0	1	0	0	CorrectCommission	0.134280	0.530875	1	0	4.134783e+01
427.545990	1.292890	city	4	1	1.501355	1.501355	0	1	0	0	CorrectCommission	0.039409	0.550386	1	0	4.126087e+01
428.858887	1.332890	city	6	1	1.545069	1.545069	0	1	0	0	CorrectCommission	0.158346	0.578953	1	0	4.117391e+01
430.185120	1.319584	city	8	1	1.541329	1.541329	0	1	0	0	CorrectCommission	0.141426	0.614256	1	0	4.108696e+01
431.518036	1.346233	city	7	1	1.483372	1.483372	0	1	0	0	CorrectCommission	0.120764	0.653092	1	0	41
432.864197	1.346065	city	2	1	1.671451	1.671451	0	1	0	0	CorrectCommission	0.730076	0.691669	1	0	4.091304e+01
434.230377	1.386338	city	5	1	1.640881	1.640881	0	1	0	0	CorrectCommission	0.591784	0.726000	1	0	4.082609e+01
435.589996	1.332899	city	7	1	1.988080	1.988080	0	1	0	0	CorrectCommission	2.162456	0.752405	1	0	4.073913e+01
436.922821	1.332730	city	9	1	2.058824	2.058824	0	1	0	0	CorrectCommission	2.482490	0.767963	0	0	4.065217e+01
438.269073	1.359750	city	4	1	1.447122	1.447122	0	1	0	0	CorrectCommission	0.284752	0.770931	0	0	4.056522e+01
439.608704	1.319532	city	5	1	1.780535	1.780535	0	1	0	0	CorrectCommission	1.223556	0.761004	1	0	4.047826e+01
440.934906	1.332897	mountain	1	0	0.000000	1.622625	1	0	0	0	CorrectOmission	0.509197	0.739247	1	0	4.039130e+01
442.267822	1.332915	city	7	1	1.508268	1.508268	0	1	0	0	CorrectCommission	0.008136	0.708029	1	0	4.030435e+01
443.594055	1.319564	city	5	1	1.972339	1.972339	0	1	0	0	CorrectCommission	2.091248	0.670642	1	0	4.021739e+01
444.933563	1.359401	city	10	1	1.599260	1.599260	0	1	0	0	CorrectCommission	0.403498	0.630877	1	0	4.013043e+01
446.259705	1.292889	city	5	1	1.558417	1.558417	0	1	0	0	CorrectCommission	0.218730	0.592708	1	0	4.004348e+01
447.565918	1.319555	city	2	1	1.511756	1.511756	0	1	0	0	CorrectCommission	0.007641	0.559786	1	0	3.995652e+01
448.878906	1.306421	city	10	1	1.525235	1.525235	0	1	0	0	CorrectCommission	0.068620	0.535131	1	0	3.986957e+01
450.178558	1.292881	city	8	1	1.554252	1.554252	0	1	0	0	CorrectCommission	0.199889	0.520927	1	0	3.978261e+01
451.484772	1.319570	city	10	1	1.453510	1.453510	0	1	0	0	CorrectCommission	0.255854	0.518386	1	0	3.969565e+01
452.797638	1.306126	city	3	1	1.701748	1.701748	0	1	0	0	CorrectCommission	0.867134	0.527765	1	0	3.960870e+01
454.110504	1.319604	city	6	1	1.551013	1.551013	0	1	0	0	CorrectCommission	0.185234	0.548444	1	0	3.952174e+01
455.443420	1.346224	city	4	1	1.474850	1.474850	0	1	0	0	CorrectCommission	0.159314	0.579117	1	0	3.943478e+01
456.796326	1.359629	city	3	1	1.557917	1.557917	0	1	0	0	CorrectCommission	0.216466	0.617943	1	0	3.934783e+01
458.149231	1.346142	city	7	1	1.783212	1.783212	0	1	0	0	CorrectCommission	1.235664	0.662716	1	0	3.926087e+01
459.515442	1.386322	city	4	1	1.848641	1.848641	0	1	0	0	CorrectCommission	1.531656	0.710997	1	0	3.917391e+01
460.854980	1.292705	city	6	1	1.578536	1.578536	0	1	0	0	CorrectCommission	0.309744	0.760285	1	0	3.908696e+01
465.066803	7.130997	break	0	0	0.000000	1.549875	0	0	0	0	ThoughtProbe	0.180084	0.808107	0	39	39
469.298767	1.332893	city	7	1	1.634447	1.634447	0	1	0	0	CorrectCommission	0.562677	0.852084	0	0	3.941304e+01
470.618439	1.306461	mountain	7	1	1.704044	1.704044	0	0	1	0	CommissionError	0.877524	0.890062	0	0	3.982609e+01
471.938110	1.332856	city	10	1	1.893252	1.893252	0	1	0	0	CorrectCommission	1.733469	0.920202	0	0	4.023913e+01
473.257568	1.306078	mountain	9	0	0.000000	1.921413	1	0	0	0	CorrectOmission	1.860864	0.941153	0	0	4.065217e+01
474.570374	1.319557	city	6	1	1.807870	1.807870	0	1	0	0	CorrectCommission	1.347214	0.952106	0	0	4.106522e+01
475.876617	1.292903	city	4	1	1.571966	1.571966	0	1	0	0	CorrectCommission	0.280021	0.952873	0	0	4.147826e+01
477.182922	1.319744	city	10	1	1.178035	1.178035	0	1	0	0	CorrectCommission	1.502059	0.943896	0	0	4.189130e+01
478.489227	1.292817	mountain	5	0	0.000000	1.334846	1	0	0	0	CorrectOmission	0.792670	0.926063	0	0	4.230435e+01
479.788757	1.306261	city	10	1	1.670200	1.670200	0	1	0	0	CorrectCommission	0.724417	0.900761	0	0	4.271739e+01
481.115021	1.346284	city	8	1	1.811897	1.811897	0	1	0	0	CorrectCommission	1.365433	0.869632	0	0	4.313043e+01
482.454620	1.332897	city	10	0	0.000000	1.760321	0	0	0	1	OmissionError	1.132112	0.834405	0	0	4.354348e+01
483.760834	1.279555	city	2	1	1.598655	1.598655	0	1	0	0	CorrectCommission	0.400759	0.796791	0	0	4.395652e+01
485.086975	1.372730	city	7	0	0.000000	1.410081	0	0	0	1	OmissionError	0.452319	0.758369	1	0	4.436957e+01
486.506714	1.466729	city	6	1	1.390531	1.390531	0	1	0	0	CorrectCommission	0.540762	0.720465	1	0	4.478261e+01
487.893005	1.305870	city	1	1	1.735934	1.735934	0	1	0	0	CorrectCommission	1.021789	0.684123	1	0	4.519565e+01
489.192352	1.292790	city	8	1	1.649390	1.649390	0	1	0	0	CorrectCommission	0.630275	0.650106	1	0	4.560870e+01
490.511841	1.346206	city	6	1	1.444369	1.444369	0	1	0	0	CorrectCommission	0.297207	0.618935	1	0	4.602174e+01
491.891357	1.412805	city	1	1	1.350574	1.350574	0	1	0	0	CorrectCommission	0.721520	0.590920	1	0	4.643478e+01
493.244202	1.292927	city	10	1	1.387559	1.387559	0	1	0	0	CorrectCommission	0.554208	0.566182	1	0	4.684783e+01
494.537140	1.292928	city	4	1	1.495565	1.495565	0	1	0	0	CorrectCommission	0.065603	0.544734	1	0	4.726087e+01
495.876709	1.386179	city	8	1	1.237135	1.237135	0	1	0	0	CorrectCommission	1.234698	0.526526	1	0	4.767391e+01
497.216309	1.293069	city	7	1	1.583006	1.583006	0	1	0	0	CorrectCommission	0.329964	0.511427	1	0	4.808696e+01
498.535980	1.346254	mountain	9	0	0.000000	1.557221	1	0	0	0	CorrectOmission	0.213319	0.499256	1	0	4.850000e+01
499.862244	1.306256	city	5	1	1.421588	1.421588	0	1	0	0	CorrectCommission	0.400266	0.489781	1	0	4.891304e+01
501.188477	1.346197	city	10	1	1.437911	1.437911	0	1	0	0	CorrectCommission	0.326423	0.482730	1	0	4.932609e+01
502.514679	1.306218	city	2	1	1.608017	1.608017	0	1	0	0	CorrectCommission	0.443110	0.477849	1	0	4.973913e+01
503.827576	1.319567	city	9	1	1.466343	1.466343	0	1	0	0	CorrectCommission	0.197802	0.474959	1	0	5.015217e+01
505.160461	1.346247	city	10	1	1.312335	1.312335	0	1	0	0	CorrectCommission	0.894509	0.474060	1	0	5.056522e+01
506.486694	1.306229	city	6	1	1.764763	1.764763	0	1	0	0	CorrectCommission	1.152204	0.475343	1	0	5.097826e+01
507.819550	1.359450	city	3	1	1.501036	1.501036	0	1	0	0	CorrectCommission	0.040852	0.479327	1	0	5.139130e+01
509.185669	1.372807	city	9	1	1.504479	1.504479	0	1	0	0	CorrectCommission	0.025279	0.486931	1	0	5.180435e+01
510.565277	1.386377	city	10	1	1.347042	1.347042	0	1	0	0	CorrectCommission	0.737499	0.499402	1	0	5.221739e+01
511.904846	1.292766	city	1	1	1.415271	1.415271	0	1	0	0	CorrectCommission	0.428841	0.518383	1	0	5.263043e+01
513.204407	1.306374	city	10	1	1.420064	1.420064	0	1	0	0	CorrectCommission	0.407161	0.545882	1	0	5.304348e+01
514.543884	1.372638	city	2	1	1.582953	1.582953	0	1	0	0	CorrectCommission	0.329725	0.584182	1	0	5.345652e+01
515.896790	1.333140	city	3	1	1.608155	1.608155	0	1	0	0	CorrectCommission	0.443735	0.635735	1	0	5.386957e+01
517.216492	1.306235	city	10	1	1.653675	1.653675	0	1	0	0	CorrectCommission	0.649659	0.703019	1	0	5.428261e+01
518.529358	1.319494	city	3	1	1.591297	1.591297	0	1	0	0	CorrectCommission	0.367471	0.788356	0	0	5.469565e+01
519.855591	1.333005	city	7	1	1.632111	1.632111	0	1	0	0	CorrectCommission	0.552109	0.893698	0	0	5.510870e+01
521.175110	1.306038	city	4	1	1.636315	1.636315	0	1	0	0	CorrectCommission	0.571125	1.020336	0	0	5.552174e+01
522.501343	1.346409	city	1	1	1.878982	1.878982	0	1	0	0	CorrectCommission	1.668914	1.168661	0	0	5.593478e+01
523.841003	1.332870	city	9	1	1.530048	1.530048	0	1	0	0	CorrectCommission	0.090390	1.337936	0	0	5.634783e+01
525.160461	1.306108	city	5	1	1.349590	1.349590	0	1	0	0	CorrectCommission	0.725973	1.526185	0	0	5.676087e+01
526.486633	1.346192	city	8	1	1.235819	1.235819	0	1	0	0	CorrectCommission	1.240656	1.730093	0	0	5.717391e+01
527.826233	1.333060	city	6	1	1.157946	1.157946	0	1	0	0	CorrectCommission	1.592941	1.945189	0	0	5.758696e+01
531.325317	5.665020	break	0	0	1.031243	1.031243	0	0	0	0	ThoughtProbe	2.166124	2.166124	0	58	58
