onset	duration	trial_type	image_type	Press	ReactionTime	ReactionTime_Interpolated	CorrectOmission	CorrectCommission	CommissionError	OmissionError	response_type	nonsmoothVarianceTimeCourse	VarianceTimeCourse	In_the_Zone	ThoughtProbe	ThoughtProbe_Interpolated
0.652896	1.279555	city	2	1	2.190740	2.190740	0	1	0	0	CorrectCommission	3.614445	3.614445	0	0	25
1.932451	1.279554	mountain	1	0	0.000000	1.559093	1	0	0	0	CorrectOmission	1.058995	3.129019	0	0	25
3.212009	1.279561	city	5	1	1.195835	1.195835	0	1	0	0	CorrectCommission	0.410634	2.658952	0	0	25
4.491594	1.279609	mountain	2	0	0.000000	1.369356	1	0	0	0	CorrectOmission	0.291379	2.218140	0	0	25
5.771183	1.279570	city	4	1	1.556588	1.556588	0	1	0	0	CorrectCommission	1.048862	1.817861	0	0	25
7.050763	1.279589	city	9	1	1.234463	1.234463	0	1	0	0	CorrectCommission	0.254357	1.465946	0	0	25
8.330273	1.279431	city	3	1	1.357908	1.357908	0	1	0	0	CorrectCommission	0.245065	1.166512	0	0	25
9.609776	1.279576	city	5	1	1.179547	1.179547	0	1	0	0	CorrectCommission	0.476531	0.920056	0	0	25
10.889436	1.279742	city	10	1	1.259033	1.259033	0	1	0	0	CorrectCommission	0.154954	0.724002	1	0	25
12.169011	1.279407	city	7	1	1.247696	1.247696	0	1	0	0	CorrectCommission	0.200820	0.573488	1	0	25
13.448578	1.279728	city	4	1	1.294490	1.294490	0	1	0	0	CorrectCommission	0.011506	0.462228	1	0	25
14.728237	1.279590	city	2	1	1.235703	1.235703	0	1	0	0	CorrectCommission	0.249340	0.383356	1	0	25
16.007812	1.279560	city	1	1	1.287309	1.287309	0	1	0	0	CorrectCommission	0.040559	0.330109	1	0	25
17.287386	1.279585	city	4	1	1.210388	1.210388	0	1	0	0	CorrectCommission	0.351758	0.296385	1	0	25
18.566978	1.279601	city	6	1	1.177852	1.177852	0	1	0	0	CorrectCommission	0.483389	0.277042	1	0	25
19.846561	1.279563	city	4	1	1.230695	1.230695	0	1	0	0	CorrectCommission	0.269602	0.268046	1	0	25
21.126005	1.279328	city	7	1	1.260727	1.260727	0	1	0	0	CorrectCommission	0.148100	0.266421	1	0	25
22.405581	1.279822	city	3	1	1.249825	1.249825	0	1	0	0	CorrectCommission	0.192206	0.270112	1	0	25
23.685295	1.279606	city	7	1	1.420586	1.420586	0	1	0	0	CorrectCommission	0.498640	0.277753	1	0	25
24.964798	1.279400	city	2	1	1.284294	1.284294	0	1	0	0	CorrectCommission	0.052756	0.288443	1	0	25
26.244341	1.279686	mountain	10	0	0.000000	1.314456	1	0	0	0	CorrectOmission	0.069270	0.301567	1	0	25
27.524006	1.279644	city	4	1	1.371416	1.371416	0	1	0	0	CorrectCommission	0.299712	0.316601	1	0	25
28.803621	1.279588	city	5	1	1.315518	1.315518	0	1	0	0	CorrectCommission	0.073566	0.333079	1	0	25
30.083128	1.279424	city	4	1	1.199315	1.199315	0	1	0	0	CorrectCommission	0.396553	0.350561	1	0	25
31.362692	1.279702	city	2	1	1.175398	1.175398	0	1	0	0	CorrectCommission	0.493316	0.368636	1	0	25
32.642342	1.279598	city	9	1	1.519635	1.519635	0	1	0	0	CorrectCommission	0.899362	0.386966	1	0	25
33.921848	1.279417	city	1	1	1.447377	1.447377	0	1	0	0	CorrectCommission	0.607028	0.405289	1	0	25
35.201351	1.279587	city	9	1	1.281907	1.281907	0	1	0	0	CorrectCommission	0.062414	0.423476	1	0	25
36.481014	1.279740	city	1	1	1.289080	1.289080	0	1	0	0	CorrectCommission	0.033393	0.441504	1	0	25
37.760609	1.279451	city	10	1	1.472779	1.472779	0	1	0	0	CorrectCommission	0.709799	0.459368	1	0	25
39.053436	1.306205	city	5	1	1.476474	1.476474	0	1	0	0	CorrectCommission	0.724747	0.477035	1	0	25
40.346409	1.279741	city	9	1	1.231122	1.231122	0	1	0	0	CorrectCommission	0.267871	0.494409	1	0	25
41.632736	1.292911	city	5	1	1.254332	1.254332	0	1	0	0	CorrectCommission	0.173974	0.511296	1	0	25
42.918964	1.279548	city	2	1	1.143722	1.143722	0	1	0	0	CorrectCommission	0.621468	0.527373	1	0	25
44.198544	1.279604	mountain	1	0	0.000000	1.085959	1	0	0	0	CorrectOmission	0.855158	0.542194	1	0	25
45.478111	1.279536	city	2	1	1.186618	1.186618	0	1	0	0	CorrectCommission	0.447924	0.555274	1	0	25
46.757687	1.279614	city	3	1	1.551272	1.551272	0	1	0	0	CorrectCommission	1.027357	0.566127	1	0	25
48.043953	1.292919	city	8	1	1.316948	1.316948	0	1	0	0	CorrectCommission	0.079352	0.574321	1	0	25
49.343533	1.306241	city	3	1	1.476210	1.476210	0	1	0	0	CorrectCommission	0.723677	0.579580	1	0	25
50.636440	1.279575	city	7	1	1.550038	1.550038	0	1	0	0	CorrectCommission	1.022365	0.581740	1	0	25
51.915936	1.279417	city	9	1	1.408391	1.408391	0	1	0	0	CorrectCommission	0.449303	0.580834	1	0	25
53.195515	1.279736	city	3	1	1.462330	1.462330	0	1	0	0	CorrectCommission	0.667523	0.577084	1	0	25
54.475090	1.279419	city	10	1	1.313677	1.313677	0	1	0	0	CorrectCommission	0.066118	0.570873	1	0	25
55.761345	1.293091	city	8	1	1.569279	1.569279	0	1	0	0	CorrectCommission	1.100207	0.562716	1	0	25
57.047672	1.279562	city	2	1	1.497669	1.497669	0	1	0	0	CorrectCommission	0.810494	0.553216	1	0	25
61.359512	7.344123	break	0	0	0.000000	1.384475	0	0	0	0	ThoughtProbe	0.352546	0.543052	1	25	25
65.671333	1.279519	city	3	1	1.241616	1.241616	0	1	0	0	CorrectCommission	0.225418	0.532926	1	0	2.537500e+01
66.950974	1.279766	mountain	1	1	1.081010	1.081010	0	0	1	0	CommissionError	0.875178	0.523507	1	0	2.575000e+01
68.230637	1.279552	city	6	1	1.230404	1.230404	0	1	0	0	CorrectCommission	0.270776	0.515386	1	0	2.612500e+01
69.516792	1.292753	city	7	1	1.265453	1.265453	0	1	0	0	CorrectCommission	0.128981	0.509098	1	0	2.650000e+01
70.803047	1.279759	city	3	1	1.200089	1.200089	0	1	0	0	CorrectCommission	0.393423	0.505059	1	0	2.687500e+01
72.082710	1.279563	city	2	1	1.092462	1.092462	0	1	0	0	CorrectCommission	0.828850	0.503549	1	0	2.725000e+01
73.362206	1.279435	city	8	1	1.027329	1.027329	0	1	0	0	CorrectCommission	1.092357	0.504722	1	0	2.762500e+01
74.641731	1.279622	city	9	1	1.296120	1.296120	0	1	0	0	CorrectCommission	0.004912	0.508598	1	0	28
75.921387	1.279679	city	8	1	1.150698	1.150698	0	1	0	0	CorrectCommission	0.593244	0.515086	1	0	2.837500e+01
77.207596	1.292742	city	7	1	1.314172	1.314172	0	1	0	0	CorrectCommission	0.068124	0.523937	1	0	2.875000e+01
78.493767	1.279601	city	1	1	1.345736	1.345736	0	1	0	0	CorrectCommission	0.195819	0.534827	1	0	2.912500e+01
79.773354	1.279581	city	6	1	1.079822	1.079822	0	1	0	0	CorrectCommission	0.879986	0.547408	1	0	2.950000e+01
81.053009	1.279722	mountain	4	0	0.000000	1.294180	1	0	0	0	CorrectOmission	0.012758	0.561338	1	0	2.987500e+01
82.332672	1.279602	city	7	1	1.573421	1.573421	0	1	0	0	CorrectCommission	1.116965	0.576498	1	0	3.025000e+01
83.612244	1.279550	city	10	1	1.502155	1.502155	0	1	0	0	CorrectCommission	0.828643	0.592919	1	0	3.062500e+01
84.898491	1.292937	city	5	1	1.620742	1.620742	0	1	0	0	CorrectCommission	1.308408	0.610878	1	0	31
86.191406	1.292901	city	10	1	1.255689	1.255689	0	1	0	0	CorrectCommission	0.168482	0.630860	1	0	3.137500e+01
87.484314	1.292915	city	7	1	1.458211	1.458211	0	1	0	0	CorrectCommission	0.650859	0.653484	1	0	3.175000e+01
88.770554	1.279556	city	10	1	1.196093	1.196093	0	1	0	0	CorrectCommission	0.409589	0.679305	1	0	3.212500e+01
90.050117	1.279575	city	4	1	1.238451	1.238451	0	1	0	0	CorrectCommission	0.238221	0.708682	1	0	3.250000e+01
91.329697	1.279576	city	8	1	1.181336	1.181336	0	1	0	0	CorrectCommission	0.469294	0.741681	1	0	3.287500e+01
92.609276	1.279581	city	10	1	1.198605	1.198605	0	1	0	0	CorrectCommission	0.399428	0.778019	0	0	3.325000e+01
93.895531	1.292930	city	5	1	1.089106	1.089106	0	1	0	0	CorrectCommission	0.842428	0.817085	0	0	3.362500e+01
95.181778	1.279567	city	8	1	1.040344	1.040344	0	1	0	0	CorrectCommission	1.039702	0.858002	0	0	34
96.461357	1.279591	city	10	1	0.974577	0.974577	0	1	0	0	CorrectCommission	1.305775	0.899758	0	0	3.437500e+01
97.740944	1.279583	mountain	5	1	0.869542	0.869542	0	0	1	0	CommissionError	1.730713	0.941279	0	0	3.475000e+01
99.020515	1.279554	city	1	1	1.037131	1.037131	0	1	0	0	CorrectCommission	1.052700	0.981442	0	0	3.512500e+01
100.300087	1.279589	city	3	1	1.467256	1.467256	0	1	0	0	CorrectCommission	0.687453	1.019082	0	0	3.550000e+01
101.579659	1.279568	city	1	1	1.506046	1.506046	0	1	0	0	CorrectCommission	0.844384	1.052890	0	0	3.587500e+01
102.859169	1.279439	city	8	1	1.423039	1.423039	0	1	0	0	CorrectCommission	0.508564	1.081366	0	0	3.625000e+01
104.152061	1.306356	city	9	1	1.593209	1.593209	0	1	0	0	CorrectCommission	1.197021	1.102810	0	0	3.662500e+01
105.451698	1.292920	city	2	1	1.241955	1.241955	0	1	0	0	CorrectCommission	0.224044	1.115407	0	0	37
106.737976	1.279634	city	9	1	1.942026	1.942026	0	1	0	0	CorrectCommission	2.608224	1.117480	0	0	3.737500e+01
108.017479	1.279372	city	2	0	0.000000	1.797796	0	0	0	1	OmissionError	2.024715	1.107634	0	0	3.775000e+01
109.297043	1.279759	city	10	1	1.474317	1.474317	0	1	0	0	CorrectCommission	0.716017	1.085215	0	0	3.812500e+01
110.609924	1.346000	city	8	1	1.636637	1.636637	0	1	0	0	CorrectCommission	1.372717	1.050469	0	0	3.850000e+01
111.922829	1.279806	city	2	1	1.825677	1.825677	0	1	0	0	CorrectCommission	2.137512	1.004639	0	0	3.887500e+01
113.202515	1.279567	city	5	1	1.614052	1.614052	0	1	0	0	CorrectCommission	1.281345	0.949950	0	0	3.925000e+01
114.488747	1.292899	city	10	1	1.404783	1.404783	0	1	0	0	CorrectCommission	0.434705	0.889448	0	0	3.962500e+01
119.067162	7.863928	break	0	0	0.000000	1.176536	0	0	0	0	ThoughtProbe	0.488712	0.826630	0	40	40
123.645638	1.293019	city	1	1	1.093670	1.093670	0	1	0	0	CorrectCommission	0.823963	0.765022	0	0	3.944118e+01
124.945213	1.306136	city	10	1	1.320542	1.320542	0	1	0	0	CorrectCommission	0.093894	0.707785	1	0	3.888235e+01
126.238098	1.279634	city	9	1	1.240381	1.240381	0	1	0	0	CorrectCommission	0.230416	0.657404	1	0	3.832353e+01
127.517746	1.279666	city	4	1	1.346986	1.346986	0	1	0	0	CorrectCommission	0.200879	0.615458	1	0	3.776471e+01
128.797379	1.279584	city	5	1	1.196613	1.196613	0	1	0	0	CorrectCommission	0.407487	0.582619	1	0	3.720588e+01
130.076950	1.279577	mountain	4	0	0.000000	1.315458	1	0	0	0	CorrectOmission	0.073326	0.558769	1	0	3.664706e+01
131.356491	1.279487	city	3	1	1.514562	1.514562	0	1	0	0	CorrectCommission	0.878840	0.543259	1	0	3.608824e+01
132.636063	1.279662	city	4	1	1.604964	1.604964	0	1	0	0	CorrectCommission	1.244575	0.535155	1	0	3.552941e+01
133.915695	1.279611	city	8	1	1.461022	1.461022	0	1	0	0	CorrectCommission	0.662232	0.533599	1	0	3.497059e+01
135.195297	1.279582	city	10	1	1.196378	1.196378	0	1	0	0	CorrectCommission	0.408434	0.537998	1	0	3.441176e+01
136.474854	1.279553	city	5	1	1.245440	1.245440	0	1	0	0	CorrectCommission	0.209948	0.548076	1	0	3.385294e+01
137.761093	1.292912	city	10	1	1.158741	1.158741	0	1	0	0	CorrectCommission	0.560703	0.563876	1	0	3.329412e+01
139.047333	1.279575	city	6	1	1.333086	1.333086	0	1	0	0	CorrectCommission	0.144643	0.585568	1	0	3.273529e+01
140.340240	1.306234	city	3	1	1.401279	1.401279	0	1	0	0	CorrectCommission	0.420530	0.613312	1	0	3.217647e+01
141.639816	1.292913	city	10	1	1.440687	1.440687	0	1	0	0	CorrectCommission	0.579963	0.646976	1	0	3.161765e+01
142.932724	1.292905	city	1	1	1.469541	1.469541	0	1	0	0	CorrectCommission	0.696696	0.686012	1	0	3.105882e+01
144.218918	1.279499	city	10	1	1.569207	1.569207	0	1	0	0	CorrectCommission	1.099913	0.729313	1	0	3.050000e+01
145.505142	1.292945	city	4	1	1.316453	1.316453	0	1	0	0	CorrectCommission	0.077351	0.775219	0	0	2.994118e+01
146.791443	1.279651	city	3	1	1.137423	1.137423	0	1	0	0	CorrectCommission	0.646951	0.821626	0	0	2.938235e+01
148.071060	1.279569	city	10	1	1.071428	1.071428	0	1	0	0	CorrectCommission	0.913944	0.866150	0	0	2.882353e+01
149.363953	1.306221	city	9	1	1.048832	1.048832	0	1	0	0	CorrectCommission	1.005361	0.906411	0	0	2.826471e+01
150.676758	1.319396	city	7	1	1.023161	1.023161	0	1	0	0	CorrectCommission	1.109218	0.940390	0	0	2.770588e+01
151.983002	1.293081	city	6	1	1.042731	1.042731	0	1	0	0	CorrectCommission	1.030045	0.966685	0	0	2.714706e+01
153.276001	1.292922	city	5	1	0.835664	0.835664	0	1	0	0	CorrectCommission	1.867775	0.984776	0	0	2.658824e+01
154.562149	1.279395	mountain	6	1	0.767220	0.767220	0	0	1	0	CommissionError	2.144677	0.995081	0	0	2.602941e+01
155.848404	1.293093	city	1	1	0.942829	0.942829	0	1	0	0	CorrectCommission	1.434217	0.998903	0	0	2.547059e+01
157.134674	1.279468	city	10	1	1.251036	1.251036	0	1	0	0	CorrectCommission	0.187306	0.998175	0	0	2.491176e+01
158.414261	1.279693	city	7	1	1.455768	1.455768	0	1	0	0	CorrectCommission	0.640977	0.995100	0	0	2.435294e+01
159.740555	1.372880	city	6	1	1.438398	1.438398	0	1	0	0	CorrectCommission	0.570703	0.991642	0	0	2.379412e+01
161.073441	1.292909	city	10	1	1.204501	1.204501	0	1	0	0	CorrectCommission	0.375572	0.989204	0	0	2.323529e+01
162.359680	1.279577	city	6	1	1.561590	1.561590	0	1	0	0	CorrectCommission	1.069098	0.988337	0	0	2.267647e+01
163.639267	1.279577	city	10	1	1.505542	1.505542	0	1	0	0	CorrectCommission	0.842344	0.988628	0	0	2.211765e+01
164.918839	1.279577	city	6	1	1.403605	1.403605	0	1	0	0	CorrectCommission	0.429939	0.988857	0	0	2.155882e+01
168.937439	6.757615	break	0	0	0.000000	1.704374	0	0	0	0	ThoughtProbe	1.646757	0.987246	0	21	21
172.956131	1.279771	city	7	1	1.861715	1.861715	0	1	0	0	CorrectCommission	2.283312	0.981798	0	0	2.085294e+01
174.249115	1.306198	city	4	1	1.329496	1.329496	0	1	0	0	CorrectCommission	0.130117	0.970773	0	0	2.070588e+01
175.555328	1.306241	city	1	1	1.043982	1.043982	0	1	0	0	CorrectCommission	1.024985	0.953084	0	0	2.055882e+01
176.848251	1.279590	city	9	1	0.873532	0.873532	0	1	0	0	CorrectCommission	1.714570	0.928509	0	0	2.041176e+01
178.127823	1.279555	city	8	1	0.872000	0.872000	0	1	0	0	CorrectCommission	1.720768	0.897828	0	0	2.026471e+01
179.407333	1.279473	mountain	8	0	0.000000	1.279274	1	0	0	0	CorrectOmission	0.073064	0.862839	0	0	2.011765e+01
180.686905	1.279683	city	9	1	1.623045	1.623045	0	1	0	0	CorrectCommission	1.317725	0.826131	0	0	1.997059e+01
181.973175	1.292849	city	2	1	1.431003	1.431003	0	1	0	0	CorrectCommission	0.540783	0.790699	0	0	1.982353e+01
183.266129	1.293043	city	5	1	1.368508	1.368508	0	1	0	0	CorrectCommission	0.287949	0.759619	1	0	1.967647e+01
184.552399	1.279494	city	7	1	1.191920	1.191920	0	1	0	0	CorrectCommission	0.426471	0.735598	1	0	1.952941e+01
185.831863	1.279450	mountain	8	0	0.000000	1.159582	1	0	0	0	CorrectOmission	0.557302	0.720577	1	0	1.938235e+01
187.138107	1.333039	city	1	1	1.255515	1.255515	0	1	0	0	CorrectCommission	0.169187	0.715475	1	0	1.923529e+01
188.444412	1.279572	city	7	1	1.463741	1.463741	0	1	0	0	CorrectCommission	0.673230	0.720033	1	0	1.908824e+01
189.723953	1.279492	city	3	1	1.193642	1.193642	0	1	0	0	CorrectCommission	0.419507	0.732809	1	0	1.894118e+01
191.010132	1.292882	city	2	1	1.074434	1.074434	0	1	0	0	CorrectCommission	0.901785	0.751379	1	0	1.879412e+01
192.303009	1.292870	city	9	1	1.192481	1.192481	0	1	0	0	CorrectCommission	0.424204	0.772576	0	0	1.864706e+01
193.602646	1.306414	city	5	1	1.252908	1.252908	0	1	0	0	CorrectCommission	0.179734	0.792935	0	0	1.850000e+01
194.895645	1.279582	city	4	0	0.000000	0.983782	0	0	0	1	OmissionError	1.268534	0.809138	0	0	1.835294e+01
196.175217	1.279552	city	6	1	0.768490	0.768490	0	1	0	0	CorrectCommission	2.139541	0.818398	0	0	1.820588e+01
197.461441	1.292905	city	7	1	0.990417	0.990417	0	1	0	0	CorrectCommission	1.241691	0.818842	0	0	1.805882e+01
198.747681	1.279561	city	4	1	0.927647	0.927647	0	1	0	0	CorrectCommission	1.495641	0.809791	0	0	1.791176e+01
200.027222	1.279537	city	3	1	1.285594	1.285594	0	1	0	0	CorrectCommission	0.047496	0.791730	0	0	1.776471e+01
201.306824	1.279654	city	8	1	0.929244	0.929244	0	1	0	0	CorrectCommission	1.489178	0.766235	0	0	1.761765e+01
202.586349	1.279416	city	4	1	1.458284	1.458284	0	1	0	0	CorrectCommission	0.651157	0.735671	1	0	1.747059e+01
203.865860	1.279598	city	7	1	1.452349	1.452349	0	1	0	0	CorrectCommission	0.627143	0.702880	1	0	1.732353e+01
205.145462	1.279585	city	1	1	1.299503	1.299503	0	1	0	0	CorrectCommission	0.008776	0.670709	1	0	1.717647e+01
206.425049	1.279616	city	5	1	1.372454	1.372454	0	1	0	0	CorrectCommission	0.303912	0.641693	1	0	1.702941e+01
207.711365	1.292991	city	1	1	1.356961	1.356961	0	1	0	0	CorrectCommission	0.241234	0.617771	1	0	1.688235e+01
209.010941	1.306180	city	10	1	1.066913	1.066913	0	1	0	0	CorrectCommission	0.932212	0.600100	1	0	1.673529e+01
210.303848	1.279639	city	1	1	1.252047	1.252047	0	1	0	0	CorrectCommission	0.183216	0.589039	1	0	1.658824e+01
211.583435	1.279517	city	6	1	1.565875	1.565875	0	1	0	0	CorrectCommission	1.086435	0.584249	1	0	1.644118e+01
212.869690	1.293000	city	3	1	1.207310	1.207310	0	1	0	0	CorrectCommission	0.364211	0.584770	1	0	1.629412e+01
214.155975	1.279567	city	1	1	1.423281	1.423281	0	1	0	0	CorrectCommission	0.509543	0.589291	1	0	1.614706e+01
217.841354	6.091186	break	0	0	0.000000	1.362793	0	0	0	0	ThoughtProbe	0.264826	0.596305	1	16	16
221.553467	1.333048	city	7	1	1.221849	1.221849	0	1	0	0	CorrectCommission	0.305388	0.604315	1	0	1.593478e+01
222.879745	1.319505	city	4	1	1.196454	1.196454	0	1	0	0	CorrectCommission	0.408127	0.612037	1	0	1.586957e+01
224.199234	1.319488	city	6	1	0.889770	0.889770	0	1	0	0	CorrectCommission	1.648880	0.618492	1	0	1.580435e+01
225.512161	1.306359	city	10	1	0.916991	0.916991	0	1	0	0	CorrectCommission	1.538748	0.623072	1	0	1.573913e+01
226.805145	1.279601	city	2	1	1.194305	1.194305	0	1	0	0	CorrectCommission	0.416823	0.625580	1	0	1.567391e+01
228.084717	1.279550	mountain	3	0	0.000000	1.354606	1	0	0	0	CorrectOmission	0.231705	0.626146	1	0	1.560870e+01
229.364319	1.279666	city	6	1	1.398305	1.398305	0	1	0	0	CorrectCommission	0.408499	0.625106	1	0	1.554348e+01
230.650497	1.292671	city	10	1	1.325814	1.325814	0	1	0	0	CorrectCommission	0.115220	0.622957	1	0	1.547826e+01
231.950027	1.306410	city	6	1	1.342532	1.342532	0	1	0	0	CorrectCommission	0.182859	0.620248	1	0	1.541304e+01
233.256271	1.306066	city	10	1	1.045157	1.045157	0	1	0	0	CorrectCommission	1.020228	0.617632	1	0	1.534783e+01
234.549149	1.279683	mountain	6	1	1.075929	1.075929	0	0	1	0	CommissionError	0.895734	0.615767	1	0	1.528261e+01
235.828735	1.279492	city	8	1	1.032984	1.032984	0	1	0	0	CorrectCommission	1.069480	0.615465	1	0	1.521739e+01
237.108337	1.279720	city	1	1	1.563225	1.563225	0	1	0	0	CorrectCommission	1.075715	0.617650	1	0	1.515217e+01
238.388000	1.279595	city	4	1	1.409266	1.409266	0	1	0	0	CorrectCommission	0.452844	0.623329	1	0	1.508696e+01
239.667526	1.279467	city	2	1	1.240993	1.240993	0	1	0	0	CorrectCommission	0.227940	0.633480	1	0	1.502174e+01
240.947083	1.279640	city	1	1	1.356352	1.356352	0	1	0	0	CorrectCommission	0.238770	0.648896	1	0	1.495652e+01
242.233353	1.292908	city	2	1	1.311779	1.311779	0	1	0	0	CorrectCommission	0.058440	0.669978	1	0	1.489130e+01
243.519562	1.279515	city	7	1	1.458342	1.458342	0	1	0	0	CorrectCommission	0.651389	0.696627	1	0	1.482609e+01
244.799133	1.279606	city	9	1	1.139360	1.139360	0	1	0	0	CorrectCommission	0.639112	0.728134	1	0	1.476087e+01
246.078751	1.279638	mountain	8	0	0.000000	1.329141	1	0	0	0	CorrectOmission	0.128681	0.763217	1	0	1.469565e+01
247.358368	1.279588	city	3	1	1.633571	1.633571	0	1	0	0	CorrectCommission	1.360312	0.800129	0	0	1.463043e+01
248.644547	1.292771	city	4	1	1.658539	1.658539	0	1	0	0	CorrectCommission	1.461323	0.836757	0	0	1.456522e+01
249.944061	1.306270	mountain	3	0	0.000000	1.625932	1	0	0	0	CorrectOmission	1.329407	0.870887	0	0	1.450000e+01
251.237030	1.279680	city	6	0	0.000000	1.536694	0	0	0	1	OmissionError	0.968376	0.900354	0	0	1.443478e+01
252.516663	1.279585	city	5	0	0.000000	1.391766	0	0	0	1	OmissionError	0.382043	0.923214	0	0	1.436957e+01
253.796265	1.279601	city	4	1	1.192091	1.192091	0	1	0	0	CorrectCommission	0.425779	0.937890	0	0	1.430435e+01
255.082428	1.292741	city	3	1	0.938612	0.938612	0	1	0	0	CorrectCommission	1.451278	0.943294	0	0	1.423913e+01
256.381927	1.306217	city	4	1	1.111774	1.111774	0	1	0	0	CorrectCommission	0.750717	0.938904	0	0	1.417391e+01
257.681580	1.293089	city	7	1	0.670744	0.670744	0	1	0	0	CorrectCommission	2.534991	0.924865	0	0	1.410870e+01
258.974518	1.292795	city	2	1	1.520770	1.520770	0	1	0	0	CorrectCommission	0.903952	0.901931	0	0	1.404348e+01
260.260742	1.279687	city	10	1	1.576835	1.576835	0	1	0	0	CorrectCommission	1.130777	0.871524	0	0	1.397826e+01
261.547058	1.292910	city	5	1	1.561335	1.561335	0	1	0	0	CorrectCommission	1.068068	0.835455	0	0	1.391304e+01
262.853210	1.319391	city	8	1	1.387762	1.387762	0	1	0	0	CorrectCommission	0.365845	0.795807	0	0	1.384783e+01
264.152679	1.279573	city	3	1	1.301748	1.301748	0	1	0	0	CorrectCommission	0.017858	0.754733	1	0	1.378261e+01
265.432312	1.279719	city	5	1	1.128527	1.128527	0	1	0	0	CorrectCommission	0.682940	0.714245	1	0	1.371739e+01
266.712006	1.279622	city	4	1	1.404344	1.404344	0	1	0	0	CorrectCommission	0.432928	0.676086	1	0	1.365217e+01
267.991608	1.279572	city	6	1	1.206903	1.206903	0	1	0	0	CorrectCommission	0.365857	0.641711	1	0	1.358696e+01
269.284424	1.306095	city	10	1	0.952953	0.952953	0	1	0	0	CorrectCommission	1.393257	0.612262	1	0	1.352174e+01
270.577240	1.279560	city	5	1	1.190360	1.190360	0	1	0	0	CorrectCommission	0.432785	0.588616	1	0	1.345652e+01
271.856903	1.279735	city	4	1	1.100028	1.100028	0	1	0	0	CorrectCommission	0.798237	0.571493	1	0	1.339130e+01
273.143127	1.292738	city	10	1	1.297349	1.297349	0	1	0	0	CorrectCommission	0.000061	0.561418	1	0	1.332609e+01
274.436066	1.293091	city	8	1	1.456687	1.456687	0	1	0	0	CorrectCommission	0.644695	0.558802	1	0	1.326087e+01
275.735718	1.306215	city	3	1	1.265190	1.265190	0	1	0	0	CorrectCommission	0.130045	0.563811	1	0	1.319565e+01
277.041931	1.306242	city	4	1	1.104002	1.104002	0	1	0	0	CorrectCommission	0.782162	0.576364	1	0	1.313043e+01
278.334778	1.279453	city	10	1	1.191725	1.191725	0	1	0	0	CorrectCommission	0.427262	0.596034	1	0	1.306522e+01
281.800323	5.651615	break	0	0	0.000000	1.288924	0	0	0	0	ThoughtProbe	0.034024	0.622106	1	13	13
285.265900	1.279557	city	6	1	1.356198	1.356198	0	1	0	0	CorrectCommission	0.238147	0.653603	1	0	1.320000e+01
286.545471	1.279583	city	5	1	1.354146	1.354146	0	1	0	0	CorrectCommission	0.229845	0.689428	1	0	1.340000e+01
287.825012	1.279495	city	10	1	1.575779	1.575779	0	1	0	0	CorrectCommission	1.126503	0.728523	1	0	1.360000e+01
289.104523	1.279549	city	5	1	1.836375	1.836375	0	1	0	0	CorrectCommission	2.180794	0.770050	0	0	1.380000e+01
290.384155	1.279688	city	6	1	1.604586	1.604586	0	1	0	0	CorrectCommission	1.243047	0.813488	0	0	14
291.663788	1.279609	mountain	10	0	0.000000	1.356428	1	0	0	0	CorrectOmission	0.239075	0.858749	0	0	1.420000e+01
292.943359	1.279511	city	7	1	1.183086	1.183086	0	1	0	0	CorrectCommission	0.462213	0.906058	0	0	1.440000e+01
294.222931	1.279656	city	8	1	1.175746	1.175746	0	1	0	0	CorrectCommission	0.491909	0.955776	0	0	1.460000e+01
295.502502	1.279455	city	7	1	1.529707	1.529707	0	1	0	0	CorrectCommission	0.940111	1.008207	0	0	1.480000e+01
296.781982	1.279518	mountain	8	0	0.000000	1.642121	1	0	0	0	CorrectOmission	1.394903	1.063340	0	0	15
298.061615	1.279751	city	6	1	1.604222	1.604222	0	1	0	0	CorrectCommission	1.241577	1.120683	0	0	1.520000e+01
299.341278	1.279581	city	5	1	1.507246	1.507246	0	1	0	0	CorrectCommission	0.849240	1.179181	0	0	1.540000e+01
300.620880	1.279582	city	1	1	1.561336	1.561336	0	1	0	0	CorrectCommission	1.068073	1.237222	0	0	1.560000e+01
301.900452	1.279571	city	10	1	1.200369	1.200369	0	1	0	0	CorrectCommission	0.392289	1.292723	0	0	1.580000e+01
303.179932	1.279427	city	5	1	0.911033	0.911033	0	1	0	0	CorrectCommission	1.562856	1.343408	0	0	16
304.459503	1.279719	city	3	1	0.698694	0.698694	0	1	0	0	CorrectCommission	2.421911	1.386995	0	0	1.620000e+01
305.739166	1.279598	city	5	1	0.749225	0.749225	0	1	0	0	CorrectCommission	2.217481	1.421546	0	0	1.640000e+01
307.018768	1.279575	city	3	1	0.908932	0.908932	0	1	0	0	CorrectCommission	1.571355	1.445650	0	0	1.660000e+01
308.298309	1.279555	city	1	1	0.804406	0.804406	0	1	0	0	CorrectCommission	1.994234	1.458581	0	0	1.680000e+01
309.577911	1.279605	city	10	1	1.014777	1.014777	0	1	0	0	CorrectCommission	1.143139	1.460279	0	0	17
310.857483	1.279537	city	5	1	0.857451	0.857451	0	1	0	0	CorrectCommission	1.779631	1.451283	0	0	1.720000e+01
312.137054	1.279602	city	6	1	0.930999	0.930999	0	1	0	0	CorrectCommission	1.482077	1.432514	0	0	1.740000e+01
313.416626	1.279590	city	2	1	1.070973	1.070973	0	1	0	0	CorrectCommission	0.915788	1.405157	0	0	1.760000e+01
314.696228	1.279567	city	6	1	0.964216	0.964216	0	1	0	0	CorrectCommission	1.347693	1.370491	0	0	1.780000e+01
315.975800	1.279588	city	7	1	1.068054	1.068054	0	1	0	0	CorrectCommission	0.927594	1.329767	0	0	18
317.255371	1.279583	city	4	1	0.911731	0.911731	0	1	0	0	CorrectCommission	1.560029	1.284247	0	0	1.820000e+01
318.541565	1.292777	city	10	1	0.730013	0.730013	0	1	0	0	CorrectCommission	2.295205	1.235224	0	0	1.840000e+01
319.827820	1.279722	mountain	4	1	0.802252	0.802252	0	0	1	0	CommissionError	2.002951	1.184079	0	0	1.860000e+01
321.107422	1.279492	city	7	1	1.230945	1.230945	0	1	0	0	CorrectCommission	0.268590	1.132308	0	0	1.880000e+01
322.386993	1.279659	city	4	1	1.449804	1.449804	0	1	0	0	CorrectCommission	0.616846	1.081505	0	0	19
323.666626	1.279583	city	10	1	1.076123	1.076123	0	1	0	0	CorrectCommission	0.894952	1.033231	0	0	1.920000e+01
324.946167	1.279535	city	6	1	1.071143	1.071143	0	1	0	0	CorrectCommission	0.915099	0.988891	0	0	1.940000e+01
326.225739	1.279570	city	9	1	1.035750	1.035750	0	1	0	0	CorrectCommission	1.058287	0.949622	0	0	1.960000e+01
327.505310	1.279607	city	2	1	1.076715	1.076715	0	1	0	0	CorrectCommission	0.892556	0.916153	0	0	1.980000e+01
328.784912	1.279607	city	8	1	1.189459	1.189459	0	1	0	0	CorrectCommission	0.436429	0.888700	0	0	20
330.064514	1.279595	city	10	1	1.550394	1.550394	0	1	0	0	CorrectCommission	1.023805	0.866942	0	0	2.020000e+01
331.344086	1.279542	city	9	1	1.284244	1.284244	0	1	0	0	CorrectCommission	0.052956	0.850033	0	0	2.040000e+01
332.623657	1.279578	city	6	1	1.177654	1.177654	0	1	0	0	CorrectCommission	0.484188	0.836738	0	0	2.060000e+01
333.903229	1.279596	city	8	1	0.822935	0.822935	0	1	0	0	CorrectCommission	1.919270	0.825547	0	0	2.080000e+01
337.355377	5.624659	break	0	0	0.000000	1.020624	0	0	0	0	ThoughtProbe	1.119484	0.814874	0	21	21
340.814209	1.293049	city	7	1	1.260256	1.260256	0	1	0	0	CorrectCommission	0.150004	0.803298	0	0	21
342.107117	1.292772	city	9	1	1.031372	1.031372	0	1	0	0	CorrectCommission	1.076000	0.789746	0	0	21
343.406708	1.306390	city	6	1	1.005130	1.005130	0	1	0	0	CorrectCommission	1.182166	0.773531	0	0	21
344.706360	1.292889	city	4	1	1.196823	1.196823	0	1	0	0	CorrectCommission	0.406635	0.754512	1	0	21
346.005920	1.306237	city	6	1	1.115927	1.115927	0	1	0	0	CorrectCommission	0.733918	0.733145	1	0	21
347.312134	1.306213	city	2	1	1.007210	1.007210	0	1	0	0	CorrectCommission	1.173752	0.710394	1	0	21
348.611694	1.292928	city	6	1	1.101952	1.101952	0	1	0	0	CorrectCommission	0.790455	0.687698	1	0	21
349.924622	1.332872	city	2	1	1.144445	1.144445	0	1	0	0	CorrectCommission	0.618543	0.666823	1	0	21
351.230774	1.279459	mountain	7	1	1.320446	1.320446	0	0	1	0	CommissionError	0.093505	0.649695	1	0	21
352.516968	1.292905	city	4	1	1.550106	1.550106	0	1	0	0	CorrectCommission	1.022637	0.638239	1	0	21
353.823273	1.319706	city	8	1	1.292916	1.292916	0	1	0	0	CorrectCommission	0.017874	0.634142	1	0	21
355.122925	1.279608	city	1	1	1.232985	1.232985	0	1	0	0	CorrectCommission	0.260334	0.638715	1	0	21
356.422516	1.319567	city	10	1	1.127976	1.127976	0	1	0	0	CorrectCommission	0.685169	0.652710	1	0	21
357.722076	1.279560	city	5	1	1.075381	1.075381	0	1	0	0	CorrectCommission	0.897951	0.676266	1	0	21
359.001556	1.279427	city	6	1	1.312960	1.312960	0	1	0	0	CorrectCommission	0.063218	0.708877	1	0	21
360.334473	1.386376	city	9	1	1.108477	1.108477	0	1	0	0	CorrectCommission	0.764057	0.749443	1	0	21
361.667450	1.279577	city	7	1	1.475721	1.475721	0	1	0	0	CorrectCommission	0.721697	0.796304	0	0	21
362.946930	1.279407	city	3	1	1.248336	1.248336	0	1	0	0	CorrectCommission	0.198229	0.847397	0	0	21
364.239838	1.306419	city	4	1	1.177528	1.177528	0	1	0	0	CorrectCommission	0.484697	0.900478	0	0	21
365.532776	1.279418	mountain	2	0	0.000000	1.598781	1	0	0	0	CorrectOmission	1.219561	0.953199	0	0	21
366.825684	1.306392	city	5	1	1.979594	1.979594	0	1	0	0	CorrectCommission	2.760216	1.003296	0	0	21
368.125305	1.292909	city	6	1	1.787470	1.787470	0	1	0	0	CorrectCommission	1.982941	1.048719	0	0	21
369.418213	1.292888	city	3	1	1.369809	1.369809	0	1	0	0	CorrectCommission	0.293212	1.087774	0	0	21
370.711090	1.292857	city	1	1	1.424086	1.424086	0	1	0	0	CorrectCommission	0.512799	1.119101	0	0	21
372.030670	1.346272	city	7	1	1.419144	1.419144	0	1	0	0	CorrectCommission	0.492806	1.141658	0	0	21
373.350189	1.292769	city	10	1	1.600696	1.600696	0	1	0	0	CorrectCommission	1.227311	1.154871	0	0	21
374.649750	1.306392	city	9	1	1.504326	1.504326	0	1	0	0	CorrectCommission	0.837428	1.158677	0	0	21
375.949402	1.292919	city	7	1	1.740721	1.740721	0	1	0	0	CorrectCommission	1.793807	1.153669	0	0	21
377.288971	1.386185	city	6	1	2.088462	2.088462	0	1	0	0	CorrectCommission	3.200661	1.141144	0	0	21
378.635193	1.306265	city	2	0	0.000000	1.855685	0	0	0	1	OmissionError	2.258917	1.123093	0	0	21
379.928101	1.279555	city	7	1	1.467584	1.467584	0	1	0	0	CorrectCommission	0.688780	1.102069	0	0	21
381.207672	1.279584	city	8	0	0.000000	1.349354	0	0	0	1	OmissionError	0.210456	1.080810	0	0	21
382.487213	1.279524	city	6	1	1.325499	1.325499	0	1	0	0	CorrectCommission	0.113947	1.061824	0	0	21
386.172607	6.091226	break	0	0	0.000000	1.220525	0	0	0	0	ThoughtProbe	0.310743	1.046965	0	21	21
389.864716	1.292990	city	4	1	1.142355	1.142355	0	1	0	0	CorrectCommission	0.626996	1.037105	0	0	2.077500e+01
391.151001	1.279595	city	6	1	1.198910	1.198910	0	1	0	0	CorrectCommission	0.398193	1.032037	0	0	2.055000e+01
392.437286	1.292978	city	1	1	1.489052	1.489052	0	1	0	0	CorrectCommission	0.775634	1.030627	0	0	2.032500e+01
393.743561	1.319570	city	10	1	1.987542	1.987542	0	1	0	0	CorrectCommission	2.792369	1.031086	0	0	2.010000e+01
395.063141	1.319601	city	2	1	1.590545	1.590545	0	1	0	0	CorrectCommission	1.186242	1.031389	0	0	1.987500e+01
396.362701	1.279533	city	9	1	1.528180	1.528180	0	1	0	0	CorrectCommission	0.933933	1.029827	0	0	1.965000e+01
397.648926	1.292905	city	8	0	0.000000	1.607840	0	0	0	1	OmissionError	1.256212	1.025267	0	0	1.942500e+01
398.941833	1.292895	mountain	2	0	0.000000	1.693762	1	0	0	0	CorrectOmission	1.603826	1.017351	0	0	1.920000e+01
400.241394	1.306230	city	10	1	1.650184	1.650184	0	1	0	0	CorrectCommission	1.427524	1.006520	0	0	1.897500e+01
401.540985	1.292925	city	1	0	0.000000	1.341344	0	0	0	1	OmissionError	0.178051	0.993867	0	0	1.875000e+01
402.847198	1.319550	city	6	1	1.063064	1.063064	0	1	0	0	CorrectCommission	0.947782	0.980901	0	0	1.852500e+01
404.146790	1.279613	mountain	1	0	0.000000	1.111170	1	0	0	0	CorrectOmission	0.753163	0.969134	0	0	1.830000e+01
405.426392	1.279573	city	9	1	1.230052	1.230052	0	1	0	0	CorrectCommission	0.272202	0.959899	0	0	1.807500e+01
406.725861	1.319382	city	5	1	1.164103	1.164103	0	1	0	0	CorrectCommission	0.539010	0.954082	0	0	1.785000e+01
408.038757	1.306399	city	8	1	1.601222	1.601222	0	1	0	0	CorrectCommission	1.229437	0.952053	0	0	1.762500e+01
409.338318	1.292750	city	10	1	1.580581	1.580581	0	1	0	0	CorrectCommission	1.145931	0.953694	0	0	1.740000e+01
410.644562	1.319729	mountain	8	0	0.000000	1.592299	1	0	0	0	CorrectOmission	1.193339	0.958517	0	0	1.717500e+01
411.950836	1.292790	city	8	1	1.632068	1.632068	0	1	0	0	CorrectCommission	1.354231	0.965784	0	0	1.695000e+01
413.237091	1.279715	city	7	1	1.695579	1.695579	0	1	0	0	CorrectCommission	1.611176	0.974604	0	0	1.672500e+01
414.536652	1.319461	city	2	1	1.396324	1.396324	0	1	0	0	CorrectCommission	0.400484	0.984047	0	0	1.650000e+01
415.842834	1.292859	city	4	1	1.354354	1.354354	0	1	0	0	CorrectCommission	0.230684	0.993172	0	0	1.627500e+01
417.129120	1.279723	city	1	0	0.000000	1.207507	0	0	0	1	OmissionError	0.363411	1.001043	0	0	1.605000e+01
418.415344	1.292752	city	5	1	1.036204	1.036204	0	1	0	0	CorrectCommission	1.056450	1.006804	0	0	1.582500e+01
419.714935	1.306399	city	9	1	0.920863	0.920863	0	1	0	0	CorrectCommission	1.523084	1.009790	0	0	1.560000e+01
421.041168	1.346069	city	2	1	0.915723	0.915723	0	1	0	0	CorrectCommission	1.543878	1.009632	0	0	1.537500e+01
422.360718	1.293060	city	10	1	0.858649	0.858649	0	1	0	0	CorrectCommission	1.774783	1.006316	0	0	1.515000e+01
423.647064	1.279585	city	5	1	1.029697	1.029697	0	1	0	0	CorrectCommission	1.082777	1.000246	0	0	1.492500e+01
424.926544	1.279412	city	6	1	1.622698	1.622698	0	1	0	0	CorrectCommission	1.316324	0.992167	0	0	1.470000e+01
426.219452	1.306405	city	2	1	1.395691	1.395691	0	1	0	0	CorrectCommission	0.397921	0.982950	0	0	1.447500e+01
427.552338	1.359366	city	5	1	1.202425	1.202425	0	1	0	0	CorrectCommission	0.383971	0.973408	0	0	1.425000e+01
428.871826	1.279604	city	7	1	1.322812	1.322812	0	1	0	0	CorrectCommission	0.103078	0.963998	0	0	1.402500e+01
430.164825	1.306379	city	2	1	1.809158	1.809158	0	1	0	0	CorrectCommission	2.070682	0.954693	0	0	1.380000e+01
431.457825	1.279604	city	10	1	1.535772	1.535772	0	1	0	0	CorrectCommission	0.964645	0.944807	0	0	1.357500e+01
432.750732	1.306230	city	6	1	1.324971	1.324971	0	1	0	0	CorrectCommission	0.111809	0.933171	0	0	1.335000e+01
434.043640	1.279575	city	4	1	1.185315	1.185315	0	1	0	0	CorrectCommission	0.453193	0.918280	0	0	1.312500e+01
435.329865	1.292892	city	1	1	0.891301	0.891301	0	1	0	0	CorrectCommission	1.642683	0.898585	0	0	1.290000e+01
436.636108	1.319570	city	8	1	1.751426	1.751426	0	1	0	0	CorrectCommission	1.837115	0.872838	0	0	1.267500e+01
437.949005	1.306253	city	6	0	0.000000	1.365518	0	0	0	1	OmissionError	0.275852	0.840449	0	0	1.245000e+01
439.241913	1.279569	city	2	1	0.770478	0.770478	0	1	0	0	CorrectCommission	2.131498	0.801781	0	0	1.222500e+01
442.574066	5.384727	break	0	0	0.000000	1.003204	0	0	0	0	ThoughtProbe	1.189961	0.758140	1	12	12
445.919647	1.306426	city	5	1	1.383616	1.383616	0	1	0	0	CorrectCommission	0.349069	0.711771	1	0	1.191304e+01
447.225952	1.306214	city	4	1	1.231634	1.231634	0	1	0	0	CorrectCommission	0.265802	0.665638	1	0	1.182609e+01
448.518860	1.279585	city	9	1	1.429286	1.429286	0	1	0	0	CorrectCommission	0.533839	0.623001	1	0	1.173913e+01
449.845001	1.372706	city	2	1	1.280065	1.280065	0	1	0	0	CorrectCommission	0.069863	0.587050	1	0	1.165217e+01
451.171234	1.279741	mountain	9	0	0.000000	1.258720	1	0	0	0	CorrectOmission	0.156219	0.560490	1	0	1.156522e+01
452.450836	1.279483	city	7	1	1.306041	1.306041	0	1	0	0	CorrectCommission	0.035226	0.545217	1	0	1.147826e+01
453.743774	1.306357	city	9	1	1.362817	1.362817	0	1	0	0	CorrectCommission	0.264926	0.542137	1	0	1.139130e+01
455.049957	1.306045	city	3	1	1.206808	1.206808	0	1	0	0	CorrectCommission	0.366240	0.551078	1	0	1.130435e+01
456.349457	1.292935	city	7	1	1.537259	1.537259	0	1	0	0	CorrectCommission	0.970664	0.570871	1	0	1.121739e+01
457.642456	1.293063	city	2	1	1.368450	1.368450	0	1	0	0	CorrectCommission	0.287715	0.599465	1	0	1.113043e+01
458.942047	1.306136	city	8	1	1.495338	1.495338	0	1	0	0	CorrectCommission	0.801063	0.634157	1	0	1.104348e+01
460.241608	1.292994	city	3	1	1.436648	1.436648	0	1	0	0	CorrectCommission	0.563623	0.671815	1	0	1.095652e+01
461.534576	1.292907	city	8	1	1.350654	1.350654	0	1	0	0	CorrectCommission	0.215718	0.709176	1	0	1.086957e+01
462.840820	1.319571	mountain	7	0	0.000000	1.476183	1	0	0	0	CorrectOmission	0.723568	0.743059	1	0	1.078261e+01
464.140381	1.279596	mountain	6	0	0.000000	1.636867	1	0	0	0	CorrectOmission	1.373648	0.770691	0	0	1.069565e+01
465.433319	1.306237	city	10	1	1.656341	1.656341	0	1	0	0	CorrectCommission	1.452434	0.789969	0	0	1.060870e+01
466.732788	1.292734	city	9	0	0.000000	1.358238	0	0	0	1	OmissionError	0.246400	0.799620	0	0	1.052174e+01
468.025604	1.292919	city	8	1	0.969584	0.969584	0	1	0	0	CorrectCommission	1.325973	0.799379	0	0	1.043478e+01
469.325287	1.306403	city	10	1	0.717407	0.717407	0	1	0	0	CorrectCommission	2.346205	0.789946	0	0	1.034783e+01
470.618256	1.279573	city	4	1	1.360965	1.360965	0	1	0	0	CorrectCommission	0.257432	0.772963	0	0	1.026087e+01
471.917847	1.319571	city	9	1	1.086861	1.086861	0	1	0	0	CorrectCommission	0.851507	0.750809	1	0	1.017391e+01
473.217407	1.279556	mountain	4	0	0.000000	1.307558	1	0	0	0	CorrectOmission	0.041363	0.726220	1	0	1.008696e+01
474.496979	1.279608	city	6	1	1.553796	1.553796	0	1	0	0	CorrectCommission	1.037565	0.702013	1	0	10
475.803223	1.332867	city	4	1	1.356315	1.356315	0	1	0	0	CorrectCommission	0.238620	0.680644	1	0	9.913043e+00
477.129456	1.319577	city	7	1	1.353830	1.353830	0	1	0	0	CorrectCommission	0.228565	0.663961	1	0	9.826087e+00
478.455597	1.332719	city	5	1	1.235538	1.235538	0	1	0	0	CorrectCommission	0.250007	0.652978	1	0	9.739130e+00
479.768494	1.293075	city	9	1	1.389675	1.389675	0	1	0	0	CorrectCommission	0.373585	0.647817	1	0	9.652174e+00
481.054810	1.279571	city	10	1	1.090130	1.090130	0	1	0	0	CorrectCommission	0.838282	0.647779	1	0	9.565217e+00
482.374390	1.359579	city	5	1	0.963294	0.963294	0	1	0	0	CorrectCommission	1.351422	0.651496	1	0	9.478261e+00
483.693970	1.279558	city	8	1	1.337855	1.337855	0	1	0	0	CorrectCommission	0.163937	0.657203	1	0	9.391304e+00
484.973511	1.279578	city	10	1	1.520696	1.520696	0	1	0	0	CorrectCommission	0.903656	0.663058	1	0	9.304348e+00
486.286438	1.346250	city	9	1	1.155604	1.155604	0	1	0	0	CorrectCommission	0.573396	0.667417	1	0	9.217391e+00
487.639252	1.359364	city	7	1	1.315348	1.315348	0	1	0	0	CorrectCommission	0.072879	0.669133	1	0	9.130435e+00
488.978790	1.319751	city	10	1	1.073497	1.073497	0	1	0	0	CorrectCommission	0.905575	0.667773	1	0	9.043478e+00
490.278442	1.279558	city	1	1	1.871292	1.871292	0	1	0	0	CorrectCommission	2.322058	0.663697	1	0	8.956522e+00
491.591309	1.346132	city	10	1	1.427889	1.427889	0	1	0	0	CorrectCommission	0.528187	0.658078	1	0	8.869565e+00
492.917511	1.306317	city	6	1	1.409043	1.409043	0	1	0	0	CorrectCommission	0.451939	0.652840	1	0	8.782609e+00
494.283752	1.426117	city	8	1	1.124224	1.124224	0	1	0	0	CorrectCommission	0.700350	0.650293	1	0	8.695652e+00
495.636627	1.279670	city	6	1	1.298843	1.298843	0	1	0	0	CorrectCommission	0.006105	0.652908	1	0	8.608696e+00
496.936157	1.319402	city	8	1	1.267923	1.267923	0	1	0	0	CorrectCommission	0.118988	0.662924	1	0	8.521739e+00
498.249023	1.306280	city	1	1	1.249701	1.249701	0	1	0	0	CorrectCommission	0.192706	0.681948	1	0	8.434783e+00
499.562012	1.319713	city	9	1	1.089929	1.089929	0	1	0	0	CorrectCommission	0.839097	0.710763	1	0	8.347826e+00
500.868317	1.292885	city	4	1	1.099409	1.099409	0	1	0	0	CorrectCommission	0.800742	0.749120	1	0	8.260870e+00
502.161194	1.292903	city	3	1	1.201126	1.201126	0	1	0	0	CorrectCommission	0.389229	0.795747	0	0	8.173913e+00
503.447479	1.279632	city	4	1	1.361003	1.361003	0	1	0	0	CorrectCommission	0.257586	0.848459	0	0	8.086957e+00
506.653412	5.132239	break	0	0	0.000000	1.520880	0	0	0	0	ThoughtProbe	0.904400	0.904400	0	8	8
