onset	duration	trial_type	image_type	Press	ReactionTime	ReactionTime_Interpolated	CorrectOmission	CorrectCommission	CommissionError	OmissionError	response_type	nonsmoothVarianceTimeCourse	VarianceTimeCourse	In_the_Zone	ThoughtProbe	ThoughtProbe_Interpolated
0.652742	1.279552	city	10	1	1.376109	1.376109	0	1	0	0	CorrectCommission	0.108736	0.108736	1	0	71
1.938987	1.292939	city	5	1	1.321758	1.321758	0	1	0	0	CorrectCommission	0.120292	0.152310	1	0	71
3.231990	1.293067	city	7	1	1.274727	1.274727	0	1	0	0	CorrectCommission	0.318477	0.196753	1	0	71
4.518234	1.279420	mountain	3	0	0.000000	1.270725	1	0	0	0	CorrectOmission	0.335342	0.242826	1	0	71
5.797816	1.279745	city	2	1	1.283578	1.283578	0	1	0	0	CorrectCommission	0.281177	0.291114	1	0	71
7.077463	1.279548	mountain	3	0	0.000000	1.287114	1	0	0	0	CorrectOmission	0.266277	0.341899	1	0	71
8.356957	1.279441	city	3	1	1.298903	1.298903	0	1	0	0	CorrectCommission	0.216601	0.395171	1	0	71
9.636545	1.279734	city	5	1	1.336515	1.336515	0	1	0	0	CorrectCommission	0.058109	0.450596	1	0	71
10.922855	1.292886	city	2	1	1.416967	1.416967	0	1	0	0	CorrectCommission	0.280911	0.507632	1	0	71
12.215755	1.292912	city	6	1	1.461042	1.461042	0	1	0	0	CorrectCommission	0.466638	0.565656	1	0	71
13.502002	1.279581	mountain	8	0	0.000000	1.562364	1	0	0	0	CorrectOmission	0.893598	0.624124	1	0	71
14.781499	1.279413	city	3	1	1.601456	1.601456	0	1	0	0	CorrectCommission	1.058327	0.682716	1	0	71
16.061018	1.279626	city	7	1	1.458841	1.458841	0	1	0	0	CorrectCommission	0.457363	0.741437	1	0	71
17.340689	1.279716	city	10	1	0.965804	0.965804	0	1	0	0	CorrectCommission	1.620247	0.800608	0	0	71
18.620327	1.279560	city	4	1	1.581874	1.581874	0	1	0	0	CorrectCommission	0.975811	0.860660	0	0	71
19.906563	1.292912	city	8	1	1.096757	1.096757	0	1	0	0	CorrectCommission	1.068426	0.921915	0	0	71
21.192806	1.279573	city	1	1	1.123853	1.123853	0	1	0	0	CorrectCommission	0.954244	0.984179	0	0	71
22.472313	1.279441	city	10	1	1.409024	1.409024	0	1	0	0	CorrectCommission	0.247440	1.046420	0	0	71
23.751892	1.279717	city	9	1	1.502659	1.502659	0	1	0	0	CorrectCommission	0.642007	1.106519	0	0	71
25.031473	1.279441	city	1	1	1.408810	1.408810	0	1	0	0	CorrectCommission	0.246539	1.161206	0	0	71
26.311054	1.279721	city	7	0	0.000000	1.239487	0	0	0	1	OmissionError	0.466975	1.206382	0	0	71
27.597380	1.292932	city	3	0	0.000000	1.015769	0	0	0	1	OmissionError	1.409700	1.237591	0	0	71
28.883547	1.279402	city	5	1	0.758739	0.758739	0	1	0	0	CorrectCommission	2.492800	1.250750	0	0	71
30.163076	1.279660	mountain	4	1	0.489478	0.489478	0	0	1	0	CommissionError	3.627439	1.242988	0	0	71
31.442730	1.279644	city	7	1	2.002711	2.002711	0	1	0	0	CorrectCommission	2.749179	1.213246	0	0	71
32.735622	1.306145	city	5	0	0.000000	1.985283	0	0	0	1	OmissionError	2.675741	1.162743	0	0	71
34.028534	1.279675	city	6	1	1.447055	1.447055	0	1	0	0	CorrectCommission	0.407699	1.094926	0	0	71
35.308163	1.279587	city	5	1	1.397886	1.397886	0	1	0	0	CorrectCommission	0.200506	1.015180	0	0	71
36.587746	1.279575	city	9	1	1.341543	1.341543	0	1	0	0	CorrectCommission	0.036921	0.930077	0	0	71
37.867317	1.279570	city	2	1	1.142224	1.142224	0	1	0	0	CorrectCommission	0.876831	0.846609	0	0	71
39.146896	1.279586	city	7	1	1.354031	1.354031	0	1	0	0	CorrectCommission	0.015703	0.771354	0	0	71
40.433075	1.292770	city	4	1	1.368136	1.368136	0	1	0	0	CorrectCommission	0.075141	0.709816	1	0	71
41.746014	1.333112	city	5	1	1.256148	1.256148	0	1	0	0	CorrectCommission	0.396768	0.665900	1	0	71
43.072250	1.319356	city	2	1	1.190837	1.190837	0	1	0	0	CorrectCommission	0.671982	0.641677	1	0	71
44.371704	1.279557	city	5	1	1.411727	1.411727	0	1	0	0	CorrectCommission	0.258829	0.637427	1	0	71
45.664669	1.306370	city	10	1	1.351697	1.351697	0	1	0	0	CorrectCommission	0.005868	0.651786	1	0	71
47.004227	1.372745	city	2	1	1.537759	1.537759	0	1	0	0	CorrectCommission	0.789918	0.682055	1	0	71
48.337048	1.292900	city	5	1	1.511431	1.511431	0	1	0	0	CorrectCommission	0.678973	0.724543	1	0	71
49.629955	1.292915	city	10	1	1.322489	1.322489	0	1	0	0	CorrectCommission	0.117212	0.775008	0	0	71
50.916195	1.279565	city	3	1	1.685697	1.685697	0	1	0	0	CorrectCommission	1.413312	0.829033	0	0	71
52.209183	1.306410	city	1	1	1.553008	1.553008	0	1	0	0	CorrectCommission	0.854174	0.882325	0	0	71
53.508869	1.292962	city	2	1	1.420944	1.420944	0	1	0	0	CorrectCommission	0.297669	0.931083	0	0	71
54.808365	1.306026	city	3	1	1.913958	1.913958	0	1	0	0	CorrectCommission	2.375185	0.972210	0	0	71
56.101208	1.279662	city	8	1	1.679180	1.679180	0	1	0	0	CorrectCommission	1.385849	1.003378	0	0	71
57.400864	1.319652	city	6	1	1.675825	1.675825	0	1	0	0	CorrectCommission	1.371711	1.023201	0	0	71
58.060692	9.250287	break	0	0	0.000000	1.666644	0	0	0	0	ThoughtProbe	1.333025	1.031155	0	71	71
67.950775	1.279592	city	5	0	0.000000	1.621409	0	0	0	1	OmissionError	1.142407	1.027532	0	0	6.967391e+01
69.230354	1.279574	city	7	0	0.000000	1.509888	0	0	0	1	OmissionError	0.672471	1.013304	0	0	6.834783e+01
70.516502	1.292722	city	1	1	1.301853	1.301853	0	1	0	0	CorrectCommission	0.204169	0.990072	0	0	6.702174e+01
71.802658	1.279589	mountain	10	1	0.967073	0.967073	0	0	1	0	CommissionError	1.614899	0.959920	0	0	6.569565e+01
73.082283	1.279650	city	6	1	1.017533	1.017533	0	1	0	0	CorrectCommission	1.402266	0.925315	0	0	6.436957e+01
74.361862	1.279507	city	10	1	1.042197	1.042197	0	1	0	0	CorrectCommission	1.298336	0.889124	0	0	6.304348e+01
75.641403	1.279578	city	5	1	1.290090	1.290090	0	1	0	0	CorrectCommission	0.253738	0.854469	0	0	6.171739e+01
76.921028	1.279668	city	1	1	1.128743	1.128743	0	1	0	0	CorrectCommission	0.933639	0.824650	0	0	6.039130e+01
78.207268	1.292821	mountain	7	1	1.090271	1.090271	0	0	1	0	CommissionError	1.095755	0.802849	0	0	5.906522e+01
79.493469	1.279572	city	5	1	1.504844	1.504844	0	1	0	0	CorrectCommission	0.651215	0.791901	0	0	5.773913e+01
80.773010	1.279516	mountain	10	1	1.337525	1.337525	0	0	1	0	CommissionError	0.053851	0.793957	0	0	5.641304e+01
82.052681	1.279828	city	9	1	1.287796	1.287796	0	1	0	0	CorrectCommission	0.263404	0.810190	0	0	5.508696e+01
83.332336	1.279483	city	6	1	1.337405	1.337405	0	1	0	0	CorrectCommission	0.054359	0.840432	0	0	5.376087e+01
84.611908	1.279649	city	10	1	1.228400	1.228400	0	1	0	0	CorrectCommission	0.513693	0.883185	0	0	5.243478e+01
85.891518	1.279582	city	7	1	1.289228	1.289228	0	1	0	0	CorrectCommission	0.257368	0.935612	0	0	5.110870e+01
87.171059	1.279499	city	10	1	1.017514	1.017514	0	1	0	0	CorrectCommission	1.402348	0.993805	0	0	4.978261e+01
88.450645	1.279671	city	6	1	1.017635	1.017635	0	1	0	0	CorrectCommission	1.401837	1.053220	0	0	4.845652e+01
89.730270	1.279575	city	2	1	1.124217	1.124217	0	1	0	0	CorrectCommission	0.952711	1.109248	0	0	4.713043e+01
91.009842	1.279568	city	9	1	0.867474	0.867474	0	1	0	0	CorrectCommission	2.034601	1.157743	0	0	4.580435e+01
92.289413	1.279577	city	5	1	0.887047	0.887047	0	1	0	0	CorrectCommission	1.952123	1.195509	0	0	4.447826e+01
93.568932	1.279456	city	1	1	1.035634	1.035634	0	1	0	0	CorrectCommission	1.325990	1.220691	0	0	4.315217e+01
94.848511	1.279705	city	3	1	0.911015	0.911015	0	1	0	0	CorrectCommission	1.851124	1.232909	0	0	4.182609e+01
96.128090	1.279450	city	8	1	0.978206	0.978206	0	1	0	0	CorrectCommission	1.567988	1.233102	0	0	4.050000e+01
97.407669	1.279715	city	6	1	1.124270	1.124270	0	1	0	0	CorrectCommission	0.952486	1.223336	0	0	3.917391e+01
98.687309	1.279573	mountain	5	1	0.876444	0.876444	0	0	1	0	CommissionError	1.996801	1.206362	0	0	3.784783e+01
99.966896	1.279598	city	6	1	1.284900	1.284900	0	1	0	0	CorrectCommission	0.275610	1.185105	0	0	3.652174e+01
101.253151	1.292914	city	8	1	1.102755	1.102755	0	1	0	0	CorrectCommission	1.043149	1.162274	0	0	3.519565e+01
102.539391	1.279553	city	7	1	1.248456	1.248456	0	1	0	0	CorrectCommission	0.429179	1.139921	0	0	3.386957e+01
103.818871	1.279417	city	8	1	1.182104	1.182104	0	1	0	0	CorrectCommission	0.708782	1.119360	0	0	3.254348e+01
105.098381	1.279596	city	10	1	1.230780	1.230780	0	1	0	0	CorrectCommission	0.503665	1.101077	0	0	3.121739e+01
106.377968	1.279588	city	8	1	1.929623	1.929623	0	1	0	0	CorrectCommission	2.441191	1.084922	0	0	2.989130e+01
107.657539	1.279552	city	9	0	0.000000	1.433750	0	0	0	1	OmissionError	0.351630	1.070289	0	0	2.856522e+01
108.937187	1.279746	city	1	1	0.769928	0.769928	0	1	0	0	CorrectCommission	2.445652	1.056517	0	0	2.723913e+01
110.216881	1.279630	city	2	1	0.964925	0.964925	0	1	0	0	CorrectCommission	1.623954	1.042922	0	0	2.591304e+01
111.496384	1.279388	city	9	1	1.230007	1.230007	0	1	0	0	CorrectCommission	0.506920	1.029043	0	0	2.458696e+01
112.782608	1.293049	city	6	1	1.190922	1.190922	0	1	0	0	CorrectCommission	0.671621	1.014606	0	0	2.326087e+01
114.068924	1.279588	city	5	1	1.358896	1.358896	0	1	0	0	CorrectCommission	0.036205	0.999459	0	0	2.193478e+01
115.348419	1.279401	city	9	1	1.175936	1.175936	0	1	0	0	CorrectCommission	0.734773	0.983526	0	0	2.060870e+01
116.627945	1.279657	city	1	1	1.550841	1.550841	0	1	0	0	CorrectCommission	0.845043	0.966773	0	0	1.928261e+01
117.907539	1.279528	city	5	1	0.969474	0.969474	0	1	0	0	CorrectCommission	1.604783	0.949250	0	0	1.795652e+01
119.187157	1.279710	city	8	1	0.751078	0.751078	0	1	0	0	CorrectCommission	2.525083	0.931140	0	0	1.663043e+01
120.466820	1.279612	city	3	1	1.324825	1.324825	0	1	0	0	CorrectCommission	0.107368	0.912814	0	0	1.530435e+01
121.753067	1.292883	city	5	0	0.000000	1.467992	0	0	0	1	OmissionError	0.495923	0.894967	0	0	1.397826e+01
123.039261	1.279510	city	8	1	1.284075	1.284075	0	1	0	0	CorrectCommission	0.279085	0.878465	0	0	1.265217e+01
124.318855	1.279670	city	10	1	0.876571	0.876571	0	1	0	0	CorrectCommission	1.996267	0.864331	0	0	1.132609e+01
124.958687	8.810412	break	0	1	1.124012	1.124012	0	0	0	0	ThoughtProbe	0.953573	0.853518	0	10	10
134.408859	1.279506	city	4	1	1.288835	1.288835	0	1	0	0	CorrectCommission	0.259026	0.846752	0	0	1.161765e+01
135.688354	1.279504	mountain	7	0	0.000000	1.242400	1	0	0	0	CorrectOmission	0.454701	0.844348	0	0	1.323529e+01
136.967911	1.279589	city	10	1	1.230905	1.230905	0	1	0	0	CorrectCommission	0.503139	0.845990	0	0	1.485294e+01
138.247559	1.279712	city	3	1	1.500550	1.500550	0	1	0	0	CorrectCommission	0.633121	0.850771	0	0	1.647059e+01
139.527206	1.279603	city	6	1	1.391467	1.391467	0	1	0	0	CorrectCommission	0.173454	0.857235	0	0	1.808824e+01
140.806778	1.279526	city	5	1	1.133585	1.133585	0	1	0	0	CorrectCommission	0.913234	0.863605	0	0	1.970588e+01
142.086380	1.279666	city	1	1	0.909094	0.909094	0	1	0	0	CorrectCommission	1.859219	0.868030	0	0	2.132353e+01
143.365967	1.279527	city	3	1	1.016081	1.016081	0	1	0	0	CorrectCommission	1.408386	0.868955	0	0	2.294118e+01
144.645538	1.279607	city	4	1	1.724265	1.724265	0	1	0	0	CorrectCommission	1.575836	0.865356	0	0	2.455882e+01
145.925110	1.279546	city	10	0	0.000000	1.579230	0	0	0	1	OmissionError	0.964672	0.856902	0	0	2.617647e+01
147.204697	1.279609	city	8	1	1.286236	1.286236	0	1	0	0	CorrectCommission	0.269979	0.844034	0	0	2.779412e+01
148.484207	1.279438	city	9	1	1.550543	1.550543	0	1	0	0	CorrectCommission	0.843786	0.827781	0	0	2.941176e+01
149.763718	1.279561	city	8	1	1.283855	1.283855	0	1	0	0	CorrectCommission	0.280014	0.809553	0	0	3.102941e+01
151.043365	1.279733	city	10	1	0.992171	0.992171	0	1	0	0	CorrectCommission	1.509140	0.790897	0	0	3.264706e+01
152.323013	1.279580	city	8	1	1.233051	1.233051	0	1	0	0	CorrectCommission	0.494093	0.773198	0	0	3.426471e+01
153.602524	1.279432	city	9	1	1.390781	1.390781	0	1	0	0	CorrectCommission	0.170564	0.757526	0	0	3.588235e+01
154.882019	1.279547	city	5	1	1.232742	1.232742	0	1	0	0	CorrectCommission	0.495396	0.744427	1	0	3.750000e+01
156.161667	1.279762	mountain	7	1	1.071015	1.071015	0	0	1	0	CommissionError	1.176900	0.733955	1	0	3.911765e+01
157.441330	1.279577	city	3	1	1.124276	1.124276	0	1	0	0	CorrectCommission	0.952463	0.725678	1	0	4.073529e+01
158.720932	1.279605	city	1	1	1.388319	1.388319	0	1	0	0	CorrectCommission	0.160190	0.718830	1	0	4.235294e+01
160.000488	1.279526	city	10	1	1.579512	1.579512	0	1	0	0	CorrectCommission	0.965858	0.712422	1	0	4.397059e+01
161.279968	1.279427	city	3	1	1.410287	1.410287	0	1	0	0	CorrectCommission	0.252759	0.705425	1	0	4.558824e+01
162.566147	1.292932	city	6	1	1.677520	1.677520	0	1	0	0	CorrectCommission	1.378854	0.696991	1	0	4.720588e+01
163.852478	1.279733	city	8	1	1.082904	1.082904	0	1	0	0	CorrectCommission	1.126801	0.686494	1	0	4.882353e+01
165.132080	1.279480	city	7	1	1.351783	1.351783	0	1	0	0	CorrectCommission	0.006231	0.673665	1	0	5.044118e+01
166.418243	1.292838	city	1	1	1.040463	1.040463	0	1	0	0	CorrectCommission	1.305641	0.658594	1	0	5.205882e+01
167.704544	1.279747	city	4	1	1.183385	1.183385	0	1	0	0	CorrectCommission	0.703382	0.641673	1	0	5.367647e+01
168.984192	1.279564	city	5	1	1.284082	1.284082	0	1	0	0	CorrectCommission	0.279053	0.623552	1	0	5.529412e+01
170.263763	1.279574	city	2	1	1.396250	1.396250	0	1	0	0	CorrectCommission	0.193612	0.605024	1	0	5.691176e+01
171.543335	1.279578	city	8	1	1.657300	1.657300	0	1	0	0	CorrectCommission	1.293649	0.586935	1	0	5.852941e+01
172.822937	1.279604	city	4	1	1.284114	1.284114	0	1	0	0	CorrectCommission	0.278920	0.570063	1	0	6.014706e+01
174.102509	1.279567	city	1	1	1.318920	1.318920	0	1	0	0	CorrectCommission	0.132252	0.555121	1	0	6.176471e+01
175.382095	1.279590	city	8	1	1.260930	1.260930	0	1	0	0	CorrectCommission	0.376617	0.542685	1	0	6.338235e+01
176.021896	11.209623	break	0	0	0.000000	1.140470	0	0	0	0	ThoughtProbe	0.884222	0.533141	1	65	65
187.877899	1.292770	mountain	2	1	1.113898	1.113898	0	0	1	0	CommissionError	0.996196	0.526714	1	0	6.527500e+01
189.164062	1.279556	city	9	1	1.337568	1.337568	0	1	0	0	CorrectCommission	0.053669	0.523441	1	0	6.555000e+01
190.443710	1.279759	city	5	1	1.388333	1.388333	0	1	0	0	CorrectCommission	0.160247	0.523207	1	0	6.582500e+01
191.723297	1.279401	city	4	1	1.548390	1.548390	0	1	0	0	CorrectCommission	0.834715	0.525684	1	0	6.610000e+01
193.002823	1.279661	city	8	1	1.229118	1.229118	0	1	0	0	CorrectCommission	0.510668	0.530333	1	0	6.637500e+01
194.282425	1.279518	city	9	1	1.359778	1.359778	0	1	0	0	CorrectCommission	0.039919	0.536447	1	0	6.665000e+01
195.562042	1.279722	city	3	1	1.388115	1.388115	0	1	0	0	CorrectCommission	0.159331	0.543195	1	0	6.692500e+01
196.841690	1.279594	city	9	1	1.569270	1.569270	0	1	0	0	CorrectCommission	0.922699	0.549671	1	0	6.720000e+01
198.121246	1.279519	city	7	1	1.657138	1.657138	0	1	0	0	CorrectCommission	1.292967	0.555005	1	0	6.747500e+01
199.400742	1.279473	city	9	1	1.497402	1.497402	0	1	0	0	CorrectCommission	0.619855	0.558459	1	0	6.775000e+01
200.680267	1.279561	city	4	1	1.307141	1.307141	0	1	0	0	CorrectCommission	0.181887	0.559585	1	0	6.802500e+01
201.966583	1.293090	city	10	1	1.095786	1.095786	0	1	0	0	CorrectCommission	1.072518	0.558232	1	0	6.830000e+01
203.252945	1.279612	city	4	1	1.374013	1.374013	0	1	0	0	CorrectCommission	0.099904	0.554644	1	0	6.857500e+01
204.532455	1.279415	city	6	1	1.230725	1.230725	0	1	0	0	CorrectCommission	0.503897	0.549536	1	0	6.885000e+01
205.818680	1.293021	mountain	9	0	0.000000	1.171200	1	0	0	0	CorrectOmission	0.754731	0.543995	1	0	6.912500e+01
207.104904	1.279449	city	10	1	1.230794	1.230794	0	1	0	0	CorrectCommission	0.503605	0.539520	1	0	6.940000e+01
208.384415	1.279581	city	3	1	1.444866	1.444866	0	1	0	0	CorrectCommission	0.398474	0.537917	1	0	6.967500e+01
209.664062	1.279708	city	10	1	1.604206	1.604206	0	1	0	0	CorrectCommission	1.069918	0.541107	1	0	6.995000e+01
210.943710	1.279579	city	7	1	1.471463	1.471463	0	1	0	0	CorrectCommission	0.510552	0.550967	1	0	7.022500e+01
212.223297	1.279583	city	1	1	1.404483	1.404483	0	1	0	0	CorrectCommission	0.228303	0.569111	1	0	7.050000e+01
213.502899	1.279631	city	10	1	1.396759	1.396759	0	1	0	0	CorrectCommission	0.195756	0.596615	1	0	7.077500e+01
214.789062	1.292690	city	5	1	1.298050	1.298050	0	1	0	0	CorrectCommission	0.220194	0.633791	1	0	7.105000e+01
216.075317	1.279820	city	7	1	1.337532	1.337532	0	1	0	0	CorrectCommission	0.053820	0.680046	1	0	7.132500e+01
217.354980	1.279502	city	9	1	1.289092	1.289092	0	1	0	0	CorrectCommission	0.257942	0.733852	1	0	7.160000e+01
218.634445	1.279444	city	10	1	1.458329	1.458329	0	1	0	0	CorrectCommission	0.455207	0.792812	0	0	7.187500e+01
219.913971	1.279599	city	7	1	1.673989	1.673989	0	1	0	0	CorrectCommission	1.363976	0.853882	0	0	7.215000e+01
221.193619	1.279696	mountain	10	0	0.000000	1.134829	1	0	0	0	CorrectOmission	0.907991	0.913656	0	0	7.242500e+01
222.473221	1.279509	city	10	1	0.770490	0.770490	0	1	0	0	CorrectCommission	2.443282	0.968783	0	0	7.270000e+01
223.759460	1.292973	city	8	1	1.510611	1.510611	0	1	0	0	CorrectCommission	0.675516	1.016154	0	0	7.297500e+01
225.045746	1.279607	city	5	1	1.923560	1.923560	0	1	0	0	CorrectCommission	2.415645	1.053269	0	0	7.325000e+01
226.325256	1.279400	city	8	1	1.398707	1.398707	0	1	0	0	CorrectCommission	0.203963	1.078264	0	0	7.352500e+01
227.604813	1.279729	city	5	1	1.373825	1.373825	0	1	0	0	CorrectCommission	0.099114	1.090134	0	0	7.380000e+01
228.884415	1.279452	city	4	1	1.870545	1.870545	0	1	0	0	CorrectCommission	2.192244	1.088640	0	0	7.407500e+01
230.163925	1.279568	city	10	0	0.000000	1.458241	0	0	0	1	OmissionError	0.454832	1.074256	0	0	7.435000e+01
231.443573	1.279734	city	5	1	0.860754	0.860754	0	1	0	0	CorrectCommission	2.062919	1.048258	0	0	7.462500e+01
232.723145	1.279410	city	2	1	0.801928	0.801928	0	1	0	0	CorrectCommission	2.310807	1.012450	0	0	7.490000e+01
234.002747	1.279795	city	3	1	1.624772	1.624772	0	1	0	0	CorrectCommission	1.156579	0.969119	0	0	7.517500e+01
235.282318	1.279365	city	6	1	1.497125	1.497125	0	1	0	0	CorrectCommission	0.618688	0.920852	0	0	7.545000e+01
236.561798	1.279595	city	4	1	1.394293	1.394293	0	1	0	0	CorrectCommission	0.185365	0.870243	0	0	7.572500e+01
241.047089	7.690961	break	0	0	0.000000	1.322040	0	0	0	0	ThoughtProbe	0.119102	0.819663	0	76	76
245.539032	1.292922	city	5	1	1.243771	1.243771	0	1	0	0	CorrectCommission	0.448922	0.771104	0	0	7.641176e+01
246.825180	1.279376	city	3	1	1.122890	1.122890	0	1	0	0	CorrectCommission	0.958303	0.726039	1	0	7.682353e+01
248.104752	1.279769	city	5	1	1.548366	1.548366	0	1	0	0	CorrectCommission	0.834611	0.685446	1	0	7.723529e+01
249.384399	1.279547	city	1	1	1.230596	1.230596	0	1	0	0	CorrectCommission	0.504440	0.649875	1	0	7.764706e+01
250.670563	1.292760	mountain	8	0	0.000000	1.194440	1	0	0	0	CorrectOmission	0.656796	0.619582	1	0	7.805882e+01
251.956818	1.279761	city	2	1	1.389071	1.389071	0	1	0	0	CorrectCommission	0.163359	0.594650	1	0	7.847059e+01
253.236496	1.279586	city	3	1	1.763661	1.763661	0	1	0	0	CorrectCommission	1.741846	0.575123	1	0	7.888235e+01
254.516068	1.279564	city	6	1	1.287437	1.287437	0	1	0	0	CorrectCommission	0.264918	0.560952	1	0	7.929412e+01
255.795639	1.279589	city	7	1	1.392272	1.392272	0	1	0	0	CorrectCommission	0.176849	0.552091	1	0	7.970588e+01
257.075226	1.279581	city	5	1	1.420162	1.420162	0	1	0	0	CorrectCommission	0.294372	0.548280	1	0	8.011765e+01
258.354797	1.279555	city	9	1	1.367081	1.367081	0	1	0	0	CorrectCommission	0.070696	0.549024	1	0	8.052941e+01
259.634277	1.279424	city	5	1	1.390726	1.390726	0	1	0	0	CorrectCommission	0.170331	0.553465	1	0	8.094118e+01
260.913849	1.279726	mountain	2	0	0.000000	1.508414	1	0	0	0	CorrectOmission	0.666260	0.560440	1	0	8.135294e+01
262.200195	1.292916	city	7	1	1.514102	1.514102	0	1	0	0	CorrectCommission	0.690228	0.568527	1	0	8.176471e+01
263.486420	1.279577	city	4	1	1.201745	1.201745	0	1	0	0	CorrectCommission	0.626016	0.576198	1	0	8.217647e+01
264.772614	1.292789	city	1	1	1.189997	1.189997	0	1	0	0	CorrectCommission	0.675520	0.582095	1	0	8.258824e+01
266.058868	1.279701	city	5	1	0.993123	0.993123	0	1	0	0	CorrectCommission	1.505130	0.585152	1	0	83
267.338409	1.279414	city	6	1	1.154395	1.154395	0	1	0	0	CorrectCommission	0.825543	0.584803	1	0	8.341176e+01
268.617920	1.279603	city	9	1	1.338338	1.338338	0	1	0	0	CorrectCommission	0.050426	0.581102	1	0	8.382353e+01
269.897491	1.279561	city	6	1	1.494882	1.494882	0	1	0	0	CorrectCommission	0.609236	0.574682	1	0	8.423529e+01
271.177155	1.279758	city	1	1	1.410686	1.410686	0	1	0	0	CorrectCommission	0.254442	0.566662	1	0	8.464706e+01
272.456818	1.279557	city	5	1	1.630238	1.630238	0	1	0	0	CorrectCommission	1.179613	0.558495	1	0	8.505882e+01
273.742981	1.292775	city	4	1	1.522905	1.522905	0	1	0	0	CorrectCommission	0.727321	0.551755	1	0	8.547059e+01
275.029236	1.279733	city	2	1	1.392601	1.392601	0	1	0	0	CorrectCommission	0.178233	0.547960	1	0	8.588235e+01
276.308899	1.279564	city	10	1	1.335294	1.335294	0	1	0	0	CorrectCommission	0.063251	0.548397	1	0	8.629412e+01
277.588470	1.279573	city	6	1	1.287528	1.287528	0	1	0	0	CorrectCommission	0.264533	0.554036	1	0	8.670588e+01
278.868042	1.279589	city	4	1	1.390729	1.390729	0	1	0	0	CorrectCommission	0.170343	0.565462	1	0	8.711765e+01
280.147552	1.279419	city	6	1	1.250473	1.250473	0	1	0	0	CorrectCommission	0.420682	0.582996	1	0	8.752941e+01
281.433777	1.293081	city	2	1	1.103796	1.103796	0	1	0	0	CorrectCommission	1.038763	0.606719	1	0	8.794118e+01
282.720032	1.279420	city	3	1	1.575144	1.575144	0	1	0	0	CorrectCommission	0.947453	0.636650	1	0	8.835294e+01
283.999603	1.279713	city	6	1	1.549145	1.549145	0	1	0	0	CorrectCommission	0.837897	0.672828	1	0	8.876471e+01
285.279236	1.279532	city	3	1	1.507663	1.507663	0	1	0	0	CorrectCommission	0.663096	0.715312	1	0	8.917647e+01
286.558807	1.279628	city	8	1	1.391441	1.391441	0	1	0	0	CorrectCommission	0.173347	0.764128	0	0	8.958824e+01
290.864105	7.330970	break	0	0	0.000000	1.206053	0	0	0	0	ThoughtProbe	0.607864	0.819131	0	90	90
295.176025	1.292858	city	10	1	1.111040	1.111040	0	1	0	0	CorrectCommission	1.008240	0.879770	0	0	8.827500e+01
296.475586	1.306287	city	7	1	1.265945	1.265945	0	1	0	0	CorrectCommission	0.355483	0.944913	0	0	8.655000e+01
297.768433	1.279392	city	10	1	1.047051	1.047051	0	1	0	0	CorrectCommission	1.277882	1.012724	0	0	8.482500e+01
299.054565	1.292886	city	3	1	1.142590	1.142590	0	1	0	0	CorrectCommission	0.875288	1.080598	0	0	8.310000e+01
300.354126	1.306238	city	1	1	1.208324	1.208324	0	1	0	0	CorrectCommission	0.598291	1.145275	0	0	8.137500e+01
301.653717	1.292914	city	7	1	0.934705	0.934705	0	1	0	0	CorrectCommission	1.751296	1.203065	0	0	7.965000e+01
302.966705	1.333073	city	5	1	1.064105	1.064105	0	1	0	0	CorrectCommission	1.206016	1.250181	0	0	7.792500e+01
304.293030	1.319571	mountain	1	1	0.871192	0.871192	0	0	1	0	CommissionError	2.018936	1.283181	0	0	7.620000e+01
305.599182	1.292743	city	4	1	0.945012	0.945012	0	1	0	0	CorrectCommission	1.707863	1.299351	0	0	7.447500e+01
306.898743	1.306371	city	1	1	1.008647	1.008647	0	1	0	0	CorrectCommission	1.439711	1.297109	0	0	7.275000e+01
308.191711	1.279580	city	3	1	0.715850	0.715850	0	1	0	0	CorrectCommission	2.673529	1.276248	0	0	7.102500e+01
309.484650	1.306283	city	5	1	1.701501	1.701501	0	1	0	0	CorrectCommission	1.479907	1.237958	0	0	6.930000e+01
310.777496	1.279426	mountain	2	0	0.000000	1.837537	1	0	0	0	CorrectOmission	2.053152	1.184799	0	0	6.757500e+01
312.057007	1.279605	city	2	1	1.604277	1.604277	0	1	0	0	CorrectCommission	1.070218	1.120282	0	0	6.585000e+01
313.343323	1.292984	city	1	1	1.482038	1.482038	0	1	0	0	CorrectCommission	0.555114	1.048544	0	0	6.412500e+01
314.669586	1.359582	city	5	1	1.404120	1.404120	0	1	0	0	CorrectCommission	0.226774	0.973854	0	0	6.240000e+01
316.002502	1.306212	city	6	1	1.324218	1.324218	0	1	0	0	CorrectCommission	0.109927	0.900228	0	0	6.067500e+01
317.302063	1.292913	city	3	1	1.273331	1.273331	0	1	0	0	CorrectCommission	0.324359	0.831171	0	0	5.895000e+01
318.588287	1.279576	city	10	1	1.071581	1.071581	0	1	0	0	CorrectCommission	1.174515	0.769549	0	0	5.722500e+01
319.867798	1.279417	city	7	1	0.995204	0.995204	0	1	0	0	CorrectCommission	1.496361	0.717589	1	0	5.550000e+01
321.167297	1.319569	city	4	1	1.199157	1.199157	0	1	0	0	CorrectCommission	0.636923	0.676992	1	0	5.377500e+01
322.480194	1.306255	city	5	1	1.354550	1.354550	0	1	0	0	CorrectCommission	0.017891	0.649028	1	0	5.205000e+01
323.793121	1.319558	city	8	1	1.504208	1.504208	0	1	0	0	CorrectCommission	0.648536	0.634561	1	0	5.032500e+01
325.092743	1.279728	city	2	1	1.289996	1.289996	0	1	0	0	CorrectCommission	0.254136	0.634020	1	0	4.860000e+01
326.372345	1.279433	city	7	1	1.301142	1.301142	0	1	0	0	CorrectCommission	0.207165	0.647318	1	0	4.687500e+01
327.651917	1.279748	city	4	1	1.196499	1.196499	0	1	0	0	CorrectCommission	0.648120	0.673673	1	0	4.515000e+01
328.931580	1.279557	city	2	1	1.203034	1.203034	0	1	0	0	CorrectCommission	0.620582	0.711474	1	0	4.342500e+01
330.211151	1.279575	mountain	2	0	0.000000	1.343088	1	0	0	0	CorrectOmission	0.030410	0.758174	0	0	4.170000e+01
331.497406	1.292928	city	1	1	1.404433	1.404433	0	1	0	0	CorrectCommission	0.228091	0.810376	0	0	3.997500e+01
332.816864	1.346038	city	2	1	1.174841	1.174841	0	1	0	0	CorrectCommission	0.739387	0.863964	0	0	3.825000e+01
334.129730	1.279640	city	10	1	1.540526	1.540526	0	1	0	0	CorrectCommission	0.801574	0.914456	0	0	3.652500e+01
335.429382	1.319675	city	3	1	1.821370	1.821370	0	1	0	0	CorrectCommission	1.985027	0.957460	0	0	3.480000e+01
336.728882	1.279371	city	9	1	1.782483	1.782483	0	1	0	0	CorrectCommission	1.821158	0.989083	0	0	3.307500e+01
338.008484	1.279799	city	8	0	0.000000	1.741186	0	0	0	1	OmissionError	1.647139	1.006432	0	0	3.135000e+01
339.294830	1.292884	city	3	0	0.000000	1.698735	0	0	0	1	OmissionError	1.468253	1.007880	0	0	2.962500e+01
340.580994	1.279444	city	8	0	0.000000	1.656382	0	0	0	1	OmissionError	1.289783	0.993201	0	0	2.790000e+01
341.867157	1.292885	city	6	0	0.000000	1.615382	0	0	0	1	OmissionError	1.117013	0.963516	0	0	2.617500e+01
343.160126	1.293072	city	7	0	0.000000	1.576989	0	0	0	1	OmissionError	0.955226	0.921073	0	0	2.445000e+01
344.459747	1.306162	city	1	0	0.000000	1.542455	0	0	0	1	OmissionError	0.809704	0.868906	0	0	2.272500e+01
345.112823	13.462173	break	0	0	0.000000	1.513035	0	0	0	0	ThoughtProbe	0.685731	0.810448	0	21	21
359.221497	1.292967	city	2	1	1.489982	1.489982	0	1	0	0	CorrectCommission	0.588589	0.749172	1	0	2.117391e+01
360.514374	1.292832	mountain	4	0	0.000000	1.474551	1	0	0	0	CorrectOmission	0.523563	0.688280	1	0	2.134783e+01
361.800629	1.279649	city	2	1	1.391413	1.391413	0	1	0	0	CorrectCommission	0.173225	0.630541	1	0	2.152174e+01
363.100281	1.319656	city	5	1	1.165238	1.165238	0	1	0	0	CorrectCommission	0.779851	0.578188	1	0	2.169565e+01
364.399902	1.279610	city	10	1	1.236013	1.236013	0	1	0	0	CorrectCommission	0.481614	0.532874	1	0	2.186957e+01
365.692841	1.306228	city	4	1	1.540587	1.540587	0	1	0	0	CorrectCommission	0.801833	0.495767	1	0	2.204348e+01
366.999023	1.306135	mountain	10	1	1.384037	1.384037	0	0	1	0	CommissionError	0.142145	0.467548	1	0	2.221739e+01
368.298584	1.293007	city	6	1	1.369603	1.369603	0	1	0	0	CorrectCommission	0.081324	0.448507	1	0	2.239130e+01
369.591461	1.292741	city	3	1	1.315693	1.315693	0	1	0	0	CorrectCommission	0.145851	0.438539	1	0	2.256522e+01
370.877686	1.279726	city	2	1	1.318537	1.318537	0	1	0	0	CorrectCommission	0.133864	0.437176	1	0	2.273913e+01
372.177307	1.319494	city	5	1	1.249407	1.249407	0	1	0	0	CorrectCommission	0.425173	0.443584	1	0	2.291304e+01
373.483551	1.292980	mountain	7	1	1.201597	1.201597	0	0	1	0	CommissionError	0.626639	0.456566	1	0	2.308696e+01
374.769775	1.279506	city	10	1	1.424267	1.424267	0	1	0	0	CorrectCommission	0.311669	0.474640	1	0	2.326087e+01
376.062683	1.306306	city	4	1	1.527217	1.527217	0	1	0	0	CorrectCommission	0.745491	0.496063	1	0	2.343478e+01
377.362305	1.292920	city	2	1	1.280054	1.280054	0	1	0	0	CorrectCommission	0.296030	0.518956	1	0	2.360870e+01
378.655182	1.292820	city	9	1	1.370163	1.370163	0	1	0	0	CorrectCommission	0.083680	0.541526	1	0	2.378261e+01
379.941406	1.279679	city	1	1	1.487225	1.487225	0	1	0	0	CorrectCommission	0.576969	0.562152	1	0	2.395652e+01
381.240967	1.319425	city	2	1	1.551616	1.551616	0	1	0	0	CorrectCommission	0.848307	0.579608	1	0	2.413043e+01
382.547211	1.293026	city	10	1	1.587351	1.587351	0	1	0	0	CorrectCommission	0.998893	0.593237	1	0	2.430435e+01
383.846863	1.306298	city	3	1	1.701217	1.701217	0	1	0	0	CorrectCommission	1.478711	0.603061	1	0	2.447826e+01
385.139771	1.279517	city	4	1	1.518580	1.518580	0	1	0	0	CorrectCommission	0.709099	0.609802	1	0	2.465217e+01
386.432648	1.306249	city	9	1	1.198634	1.198634	0	1	0	0	CorrectCommission	0.639127	0.614823	1	0	2.482609e+01
387.732239	1.292911	city	8	1	1.329916	1.329916	0	1	0	0	CorrectCommission	0.085914	0.619888	1	0	25
389.025116	1.292893	city	1	1	1.418492	1.418492	0	1	0	0	CorrectCommission	0.287335	0.626907	1	0	2.517391e+01
390.331329	1.319482	city	9	1	1.177421	1.177421	0	1	0	0	CorrectCommission	0.728515	0.637621	1	0	2.534783e+01
391.637543	1.292988	city	2	1	1.358651	1.358651	0	1	0	0	CorrectCommission	0.035171	0.653293	1	0	2.552174e+01
392.923798	1.279471	city	3	1	1.460200	1.460200	0	1	0	0	CorrectCommission	0.463090	0.674537	1	0	2.569565e+01
394.203278	1.279549	city	4	1	1.142184	1.142184	0	1	0	0	CorrectCommission	0.877000	0.701124	1	0	2.586957e+01
395.496246	1.306381	city	2	1	1.559544	1.559544	0	1	0	0	CorrectCommission	0.881718	0.732047	1	0	2.604348e+01
396.829163	1.359453	mountain	2	0	0.000000	1.508245	1	0	0	0	CorrectOmission	0.665548	0.765588	0	0	2.621739e+01
398.155365	1.292957	city	5	1	1.249525	1.249525	0	1	0	0	CorrectCommission	0.424677	0.799535	0	0	2.639130e+01
399.455017	1.306304	city	6	1	1.044619	1.044619	0	1	0	0	CorrectCommission	1.288128	0.831456	0	0	2.656522e+01
400.747955	1.279607	city	2	1	1.313226	1.313226	0	1	0	0	CorrectCommission	0.156245	0.859003	0	0	2.673913e+01
402.060791	1.346017	city	5	1	1.298972	1.298972	0	1	0	0	CorrectCommission	0.216312	0.880310	0	0	2.691304e+01
403.386993	1.306398	city	3	1	2.139179	2.139179	0	1	0	0	CorrectCommission	3.324244	0.894202	0	0	2.708696e+01
404.693298	1.306259	city	4	1	1.684854	1.684854	0	1	0	0	CorrectCommission	1.409759	0.900306	0	0	2.726087e+01
405.992889	1.292903	city	7	1	1.645016	1.645016	0	1	0	0	CorrectCommission	1.241887	0.899248	0	0	2.743478e+01
407.299042	1.319420	city	2	0	0.000000	1.521489	0	0	0	1	OmissionError	0.721355	0.892373	0	0	2.760870e+01
408.598633	1.279740	city	1	0	0.000000	1.363615	0	0	0	1	OmissionError	0.056090	0.881504	0	0	2.778261e+01
409.878204	1.279418	city	5	0	0.000000	1.220738	0	0	0	1	OmissionError	0.545980	0.868578	0	0	2.795652e+01
411.157776	1.279710	city	3	1	1.142201	1.142201	0	1	0	0	CorrectCommission	0.876929	0.855280	0	0	2.813043e+01
412.437408	1.279525	city	5	1	1.177346	1.177346	0	1	0	0	CorrectCommission	0.728828	0.842758	0	0	2.830435e+01
413.716888	1.279470	city	7	1	1.250558	1.250558	0	1	0	0	CorrectCommission	0.420321	0.831498	0	0	2.847826e+01
414.996429	1.279608	city	6	1	1.129681	1.129681	0	1	0	0	CorrectCommission	0.929687	0.821281	0	0	2.865217e+01
416.289429	1.306384	city	9	1	1.152681	1.152681	0	1	0	0	CorrectCommission	0.832768	0.811315	0	0	2.882609e+01
416.942627	11.049522	break	0	0	0.000000	1.119864	0	0	0	0	ThoughtProbe	0.971053	0.800523	0	29	29
428.631958	1.279610	city	9	1	1.252029	1.252029	0	1	0	0	CorrectCommission	0.414124	0.787775	0	0	2.997059e+01
429.911621	1.279734	city	4	1	1.769971	1.769971	0	1	0	0	CorrectCommission	1.768436	0.772209	0	0	3.094118e+01
431.211273	1.319562	mountain	3	1	1.040376	1.040376	0	0	1	0	CommissionError	1.306010	0.753366	1	0	3.191176e+01
432.517487	1.292871	city	9	1	1.541286	1.541286	0	1	0	0	CorrectCommission	0.804780	0.731356	1	0	3.288235e+01
433.830383	1.332909	city	1	1	1.249946	1.249946	0	1	0	0	CorrectCommission	0.422902	0.706804	1	0	3.385294e+01
435.136627	1.279581	city	9	1	1.401492	1.401492	0	1	0	0	CorrectCommission	0.215700	0.680725	1	0	3.482353e+01
436.422791	1.292743	city	5	1	1.530712	1.530712	0	1	0	0	CorrectCommission	0.760222	0.654334	1	0	3.579412e+01
437.715637	1.292985	city	1	1	1.255811	1.255811	0	1	0	0	CorrectCommission	0.398186	0.628794	1	0	3.676471e+01
439.008667	1.293041	city	2	1	1.407905	1.407905	0	1	0	0	CorrectCommission	0.242721	0.605097	1	0	3.773529e+01
440.321594	1.332849	city	7	1	1.236851	1.236851	0	1	0	0	CorrectCommission	0.478084	0.583906	1	0	3.870588e+01
441.634430	1.292797	city	10	1	1.106422	1.106422	0	1	0	0	CorrectCommission	1.027700	0.565451	1	0	3.967647e+01
442.927246	1.292861	city	9	1	1.130029	1.130029	0	1	0	0	CorrectCommission	0.928218	0.549603	1	0	4.064706e+01
444.213593	1.279793	city	10	1	1.310594	1.310594	0	1	0	0	CorrectCommission	0.167336	0.535910	1	0	4.161765e+01
445.506592	1.306227	city	6	1	1.449807	1.449807	0	1	0	0	CorrectCommission	0.419293	0.523704	1	0	4.258824e+01
446.799438	1.279471	city	5	1	1.318206	1.318206	0	1	0	0	CorrectCommission	0.135259	0.512182	1	0	4.355882e+01
448.085571	1.292814	city	2	1	1.511352	1.511352	0	1	0	0	CorrectCommission	0.678637	0.500571	1	0	4.452941e+01
449.385193	1.306415	city	4	1	1.424708	1.424708	0	1	0	0	CorrectCommission	0.313528	0.488241	1	0	4.550000e+01
450.691437	1.306071	city	2	1	1.398817	1.398817	0	1	0	0	CorrectCommission	0.204427	0.474880	1	0	4.647059e+01
451.997681	1.306384	city	3	1	1.684902	1.684902	0	1	0	0	CorrectCommission	1.409961	0.460585	1	0	4.744118e+01
453.290588	1.279438	mountain	8	0	0.000000	1.612505	1	0	0	0	CorrectOmission	1.104889	0.445903	1	0	4.841176e+01
454.576752	1.292903	city	6	1	1.418313	1.418313	0	1	0	0	CorrectCommission	0.286581	0.431894	1	0	4.938235e+01
455.876312	1.306221	city	2	1	1.339010	1.339010	0	1	0	0	CorrectCommission	0.047594	0.420046	1	0	5.035294e+01
457.189301	1.319746	city	7	1	1.352709	1.352709	0	1	0	0	CorrectCommission	0.010133	0.412101	1	0	5.132353e+01
458.522186	1.346054	city	10	1	1.354051	1.354051	0	1	0	0	CorrectCommission	0.015789	0.409851	1	0	5.229412e+01
459.848358	1.306264	city	8	1	1.436476	1.436476	0	1	0	0	CorrectCommission	0.363119	0.414941	1	0	5.326471e+01
461.161346	1.319714	city	2	1	1.271767	1.271767	0	1	0	0	CorrectCommission	0.330949	0.428636	1	0	5.423529e+01
462.467651	1.292890	city	5	1	1.420261	1.420261	0	1	0	0	CorrectCommission	0.294789	0.451660	1	0	5.520588e+01
463.767181	1.306159	city	10	1	1.440606	1.440606	0	1	0	0	CorrectCommission	0.380522	0.484023	1	0	5.617647e+01
465.080078	1.319634	city	9	1	1.399806	1.399806	0	1	0	0	CorrectCommission	0.208595	0.524920	1	0	5.714706e+01
466.379578	1.279418	city	8	1	1.550573	1.550573	0	1	0	0	CorrectCommission	0.843912	0.572718	1	0	5.811765e+01
467.679169	1.319732	city	5	1	1.511991	1.511991	0	1	0	0	CorrectCommission	0.681331	0.624976	1	0	5.908824e+01
468.998840	1.319589	city	1	0	0.000000	1.358606	0	0	0	1	OmissionError	0.034980	0.678553	1	0	6.005882e+01
470.331696	1.346120	city	3	1	1.269653	1.269653	0	1	0	0	CorrectCommission	0.339858	0.729859	1	0	6.102941e+01
471.004730	14.581624	break	0	0	0.000000	1.424368	0	0	0	0	ThoughtProbe	0.312096	0.775136	0	62	62
486.226257	1.279776	city	6	0	0.000000	1.669715	0	0	0	1	OmissionError	1.345965	0.810895	0	0	6.197500e+01
487.512665	1.293058	city	9	1	1.852658	1.852658	0	1	0	0	CorrectCommission	2.116871	0.834283	0	0	6.195000e+01
488.812256	1.306121	city	6	0	0.000000	1.820163	0	0	0	1	OmissionError	1.979938	0.843497	0	0	6.192500e+01
490.111847	1.293027	mountain	8	0	0.000000	1.677244	1	0	0	0	CorrectOmission	1.377693	0.838001	0	0	6.190000e+01
491.398132	1.279573	mountain	2	0	0.000000	1.528918	1	0	0	0	CorrectOmission	0.752663	0.818611	0	0	6.187500e+01
492.684357	1.292891	city	10	1	1.480202	1.480202	0	1	0	0	CorrectCommission	0.547375	0.787362	0	0	6.185000e+01
493.977264	1.292904	city	7	1	1.636110	1.636110	0	1	0	0	CorrectCommission	1.204358	0.747185	1	0	6.182500e+01
495.296753	1.346060	city	5	1	1.445986	1.445986	0	1	0	0	CorrectCommission	0.403193	0.701509	1	0	6.180000e+01
496.636322	1.333076	city	1	1	1.413334	1.413334	0	1	0	0	CorrectCommission	0.265600	0.653878	1	0	6.177500e+01
497.942535	1.279397	city	8	1	1.428453	1.428453	0	1	0	0	CorrectCommission	0.329312	0.607495	1	0	6.175000e+01
499.275360	1.386232	city	6	1	1.362631	1.362631	0	1	0	0	CorrectCommission	0.051943	0.564965	1	0	6.172500e+01
500.635010	1.333049	city	9	1	1.166098	1.166098	0	1	0	0	CorrectCommission	0.776228	0.528145	1	0	6.170000e+01
501.941345	1.279623	city	3	1	1.358088	1.358088	0	1	0	0	CorrectCommission	0.032800	0.498120	1	0	6.167500e+01
503.240875	1.319444	city	1	1	1.403202	1.403202	0	1	0	0	CorrectCommission	0.222906	0.475412	1	0	6.165000e+01
504.593719	1.386277	city	10	1	1.208578	1.208578	0	1	0	0	CorrectCommission	0.597223	0.460132	1	0	6.162500e+01
505.926666	1.279579	city	8	1	0.989955	0.989955	0	1	0	0	CorrectCommission	1.518477	0.452236	1	0	6.160000e+01
507.206177	1.279431	city	3	1	1.345443	1.345443	0	1	0	0	CorrectCommission	0.020484	0.451669	1	0	6.157500e+01
508.519073	1.346372	mountain	3	1	1.274029	1.274029	0	0	1	0	CommissionError	0.321418	0.458518	1	0	6.155000e+01
509.838623	1.292743	city	3	1	1.325764	1.325764	0	1	0	0	CorrectCommission	0.103409	0.472905	1	0	6.152500e+01
511.144806	1.319610	city	6	1	1.350936	1.350936	0	1	0	0	CorrectCommission	0.002661	0.494951	1	0	6.150000e+01
512.457703	1.306194	city	10	1	1.332831	1.332831	0	1	0	0	CorrectCommission	0.073630	0.524588	1	0	6.147500e+01
513.757263	1.292909	city	8	1	1.573992	1.573992	0	1	0	0	CorrectCommission	0.942600	0.561401	1	0	6.145000e+01
515.050171	1.292910	city	10	1	1.163775	1.163775	0	1	0	0	CorrectCommission	0.786019	0.604476	1	0	6.142500e+01
516.343079	1.292936	city	3	1	1.510627	1.510627	0	1	0	0	CorrectCommission	0.675584	0.652351	1	0	6.140000e+01
517.635986	1.292890	city	6	0	0.000000	1.460718	0	0	0	1	OmissionError	0.465273	0.703055	1	0	6.137500e+01
518.922241	1.279567	city	5	1	1.300712	1.300712	0	1	0	0	CorrectCommission	0.208979	0.754226	0	0	6.135000e+01
520.235229	1.346420	city	3	1	1.317270	1.317270	0	1	0	0	CorrectCommission	0.139204	0.803377	0	0	6.132500e+01
521.548218	1.279548	city	1	1	1.572393	1.572393	0	1	0	0	CorrectCommission	0.935859	0.848191	0	0	6.130000e+01
522.834412	1.292908	city	7	1	1.682708	1.682708	0	1	0	0	CorrectCommission	1.400715	0.886850	0	0	6.127500e+01
524.174011	1.386220	city	9	1	1.988763	1.988763	0	1	0	0	CorrectCommission	2.690404	0.918360	0	0	6.125000e+01
525.533569	1.332886	city	4	0	0.000000	1.834570	0	0	0	1	OmissionError	2.040648	0.942702	0	0	6.122500e+01
526.839722	1.279412	city	6	0	0.000000	1.490679	0	0	0	1	OmissionError	0.591525	0.960908	0	0	6.120000e+01
528.139282	1.319721	city	10	1	1.227643	1.227643	0	1	0	0	CorrectCommission	0.516883	0.974847	0	0	6.117500e+01
529.438965	1.279615	city	2	1	1.316014	1.316014	0	1	0	0	CorrectCommission	0.144497	0.986831	0	0	6.115000e+01
530.725220	1.292898	city	1	1	1.600963	1.600963	0	1	0	0	CorrectCommission	1.056250	0.999217	0	0	6.112500e+01
532.018066	1.292798	city	6	1	1.475612	1.475612	0	1	0	0	CorrectCommission	0.528035	1.013932	0	0	6.110000e+01
533.310974	1.293029	city	8	1	1.616563	1.616563	0	1	0	0	CorrectCommission	1.121988	1.032182	0	0	6.107500e+01
534.610535	1.306084	city	6	1	1.524241	1.524241	0	1	0	0	CorrectCommission	0.732950	1.054206	0	0	6.105000e+01
535.910095	1.293028	city	4	1	1.568540	1.568540	0	1	0	0	CorrectCommission	0.919622	1.079366	0	0	6.102500e+01
540.255371	7.397590	break	0	0	0.000000	1.612839	0	0	0	0	ThoughtProbe	1.106294	1.106294	0	61	61
