onset	duration	trial_type	image_type	Press	ReactionTime	ReactionTime_Interpolated	CorrectOmission	CorrectCommission	CommissionError	OmissionError	response_type	nonsmoothVarianceTimeCourse	VarianceTimeCourse	In_the_Zone	ThoughtProbe	ThoughtProbe_Interpolated
0.653010	1.279576	city	5	1	1.204174	1.204174	0	1	0	0	CorrectCommission	0.026507	0.026507	1	0	27
1.932531	1.279466	city	1	1	1.178225	1.178225	0	1	0	0	CorrectCommission	0.054078	0.226880	1	0	27
3.212026	1.279525	city	6	1	1.259007	1.259007	0	1	0	0	CorrectCommission	0.196796	0.416096	1	0	27
4.491661	1.279745	city	2	0	0.000000	1.623565	0	0	0	1	OmissionError	1.328956	0.584243	1	0	27
5.771308	1.279548	city	8	1	1.976603	1.976603	0	1	0	0	CorrectCommission	2.425343	0.723681	1	0	27
7.050892	1.279621	mountain	9	0	0.000000	2.022829	1	0	0	0	CorrectOmission	2.568900	0.829851	0	0	27
8.330487	1.279569	city	9	1	1.947576	1.947576	0	1	0	0	CorrectCommission	2.335196	0.901703	0	0	27
9.610078	1.279611	city	3	1	1.936179	1.936179	0	1	0	0	CorrectCommission	2.299803	0.941632	0	0	27
10.889658	1.279549	city	8	0	0.000000	1.447793	0	0	0	1	OmissionError	0.783083	0.954953	0	0	27
12.169155	1.279446	city	9	1	1.017117	1.017117	0	1	0	0	CorrectCommission	0.554410	0.949067	0	0	27
13.448668	1.279579	city	4	1	1.178854	1.178854	0	1	0	0	CorrectCommission	0.052125	0.932284	0	0	27
14.728312	1.279711	city	3	1	1.070595	1.070595	0	1	0	0	CorrectCommission	0.388333	0.912689	0	0	27
16.007933	1.279529	city	4	1	1.086970	1.086970	0	1	0	0	CorrectCommission	0.337479	0.897051	0	0	27
17.287514	1.279633	city	2	1	1.390537	1.390537	0	1	0	0	CorrectCommission	0.605273	0.890083	0	0	27
18.567038	1.279416	mountain	6	0	0.000000	1.259077	1	0	0	0	CorrectOmission	0.197014	0.893985	0	0	27
19.846539	1.279585	city	8	1	1.042794	1.042794	0	1	0	0	CorrectCommission	0.474668	0.908461	0	0	27
21.126135	1.279608	city	3	1	1.091894	1.091894	0	1	0	0	CorrectCommission	0.322186	0.931035	0	0	27
22.405794	1.279709	city	6	1	0.931513	0.931513	0	1	0	0	CorrectCommission	0.820259	0.957711	0	0	27
23.685432	1.279569	city	10	1	0.614380	0.614380	0	1	0	0	CorrectCommission	1.805141	0.983768	0	0	27
24.964956	1.279478	city	3	1	0.549721	0.549721	0	1	0	0	CorrectCommission	2.005945	1.004584	0	0	27
26.244461	1.279533	city	2	1	0.537292	0.537292	0	1	0	0	CorrectCommission	2.044543	1.016418	0	0	27
27.524071	1.279685	city	5	1	0.926754	0.926754	0	1	0	0	CorrectCommission	0.835041	1.016936	0	0	27
28.803730	1.279633	city	6	1	1.793973	1.793973	0	1	0	0	CorrectCommission	1.858170	1.005515	0	0	27
30.083313	1.279532	city	8	0	0.000000	1.556695	0	0	0	1	OmissionError	1.121288	0.983128	0	0	27
31.362879	1.279601	city	9	1	1.018013	1.018013	0	1	0	0	CorrectCommission	0.551629	0.952153	0	0	27
32.642479	1.279602	city	5	1	0.981017	0.981017	0	1	0	0	CorrectCommission	0.666522	0.915900	0	0	27
33.922058	1.279554	city	1	1	1.025830	1.025830	0	1	0	0	CorrectCommission	0.527351	0.878034	0	0	27
35.201626	1.279579	city	9	1	0.915116	0.915116	0	1	0	0	CorrectCommission	0.871183	0.842124	0	0	27
36.481129	1.279427	city	7	1	0.971453	0.971453	0	1	0	0	CorrectCommission	0.696224	0.811188	0	0	27
37.760662	1.279644	city	6	1	1.390788	1.390788	0	1	0	0	CorrectCommission	0.606050	0.787445	1	0	27
39.040329	1.279688	city	10	1	0.987628	0.987628	0	1	0	0	CorrectCommission	0.645992	0.772169	1	0	27
40.319950	1.279551	city	8	1	1.123810	1.123810	0	1	0	0	CorrectCommission	0.223070	0.765710	1	0	27
41.599438	1.279429	city	5	1	0.963713	0.963713	0	1	0	0	CorrectCommission	0.720261	0.767700	1	0	27
42.239155	8.930526	break	0	1	1.017241	1.017241	0	0	0	0	ThoughtProbe	0.554026	0.777247	1	27	27
51.809471	1.279586	city	5	1	1.288722	1.288722	0	1	0	0	CorrectCommission	0.289079	0.793263	1	0	2.763043e+01
53.089073	1.279620	mountain	10	0	0.000000	0.867354	1	0	0	0	CorrectOmission	1.019511	0.814732	0	0	2.826087e+01
54.368622	1.279476	city	9	1	0.697788	0.697788	0	1	0	0	CorrectCommission	1.546112	0.840879	0	0	2.889130e+01
55.648201	1.279682	city	8	1	1.724674	1.724674	0	1	0	0	CorrectCommission	1.642960	0.871260	0	0	2.952174e+01
56.927834	1.279580	mountain	9	0	0.000000	1.452927	1	0	0	0	CorrectOmission	0.799029	0.905679	0	0	3.015217e+01
58.207386	1.279525	city	10	1	0.910320	0.910320	0	1	0	0	CorrectCommission	0.886079	0.943963	0	0	3.078261e+01
59.486965	1.279632	city	9	1	1.124624	1.124624	0	1	0	0	CorrectCommission	0.220541	0.985629	0	0	3.141304e+01
60.766575	1.279589	city	7	1	1.455020	1.455020	0	1	0	0	CorrectCommission	0.805529	1.029649	0	0	3.204348e+01
62.046154	1.279571	city	2	1	1.260625	1.260625	0	1	0	0	CorrectCommission	0.201820	1.074199	0	0	3.267391e+01
63.325657	1.279433	city	10	1	1.243472	1.243472	0	1	0	0	CorrectCommission	0.148552	1.116745	0	0	3.330435e+01
64.605217	1.279685	city	6	1	1.763569	1.763569	0	1	0	0	CorrectCommission	1.763749	1.154176	0	0	3.393478e+01
65.884804	1.279491	city	10	1	1.671365	1.671365	0	1	0	0	CorrectCommission	1.477404	1.183202	0	0	3.456522e+01
67.164406	1.279713	city	5	1	1.945882	1.945882	0	1	0	0	CorrectCommission	2.329938	1.200927	0	0	3.519565e+01
68.443962	1.279407	city	1	1	1.887188	1.887188	0	1	0	0	CorrectCommission	2.147658	1.205279	0	0	3.582609e+01
69.723526	1.279719	city	2	1	2.084055	2.084055	0	1	0	0	CorrectCommission	2.759042	1.195441	0	0	3.645652e+01
71.003189	1.279599	mountain	5	0	0.000000	1.640794	1	0	0	0	CorrectOmission	1.382463	1.171959	0	0	3.708696e+01
72.282768	1.279557	city	9	1	1.070006	1.070006	0	1	0	0	CorrectCommission	0.390161	1.136704	0	0	3.771739e+01
73.562332	1.279583	city	2	1	0.884291	0.884291	0	1	0	0	CorrectCommission	0.966911	1.092530	0	0	3.834783e+01
74.841927	1.279599	city	10	1	0.964609	0.964609	0	1	0	0	CorrectCommission	0.717479	1.042810	0	0	3.897826e+01
76.121521	1.279586	city	3	1	1.121474	1.121474	0	1	0	0	CorrectCommission	0.230322	0.991013	0	0	3.960870e+01
77.401054	1.279480	city	7	1	1.017043	1.017043	0	1	0	0	CorrectCommission	0.554641	0.940290	0	0	4.023913e+01
78.680626	1.279675	city	6	1	0.964469	0.964469	0	1	0	0	CorrectCommission	0.717915	0.893202	0	0	4.086957e+01
79.960175	1.279408	city	5	1	0.723555	0.723555	0	1	0	0	CorrectCommission	1.466088	0.851636	0	0	4.150000e+01
81.239662	1.279568	city	1	1	1.710199	1.710199	0	1	0	0	CorrectCommission	1.598005	0.816782	0	0	4.213043e+01
82.519234	1.279587	city	8	1	1.412977	1.412977	0	1	0	0	CorrectCommission	0.674960	0.789223	1	0	4.276087e+01
83.798843	1.279631	city	7	1	1.230423	1.230423	0	1	0	0	CorrectCommission	0.108026	0.769040	1	0	4.339130e+01
85.078491	1.279662	city	1	1	1.070358	1.070358	0	1	0	0	CorrectCommission	0.389066	0.755913	1	0	4.402174e+01
86.358124	1.279597	city	9	0	0.000000	1.165190	0	0	0	1	OmissionError	0.094561	0.749163	1	0	4.465217e+01
87.637718	1.279597	city	3	1	1.390655	1.390655	0	1	0	0	CorrectCommission	0.605639	0.747857	1	0	4.528261e+01
88.917305	1.279580	city	7	1	1.622494	1.622494	0	1	0	0	CorrectCommission	1.325631	0.750851	1	0	4.591304e+01
90.196892	1.279585	city	1	0	0.000000	1.562323	0	0	0	1	OmissionError	1.138766	0.756914	1	0	4.654348e+01
91.476425	1.279487	mountain	2	0	0.000000	1.390376	1	0	0	0	CorrectOmission	0.604772	0.764846	1	0	4.717391e+01
92.756004	1.279667	city	2	1	1.286886	1.286886	0	1	0	0	CorrectCommission	0.283375	0.773549	1	0	4.780435e+01
94.035629	1.279584	city	10	0	0.000000	1.432086	0	0	0	1	OmissionError	0.734304	0.782144	1	0	4.843478e+01
95.315193	1.279555	city	7	1	1.569716	1.569716	0	1	0	0	CorrectCommission	1.161726	0.789995	1	0	4.906522e+01
96.594749	1.279552	city	1	1	1.443519	1.443519	0	1	0	0	CorrectCommission	0.769810	0.796768	1	0	4.969565e+01
97.874344	1.279641	city	8	1	1.604708	1.604708	0	1	0	0	CorrectCommission	1.270396	0.802419	0	0	5.032609e+01
99.153862	1.279386	city	7	1	1.654872	1.654872	0	1	0	0	CorrectCommission	1.426184	0.807096	0	0	5.095652e+01
100.433434	1.279756	city	1	1	1.403422	1.403422	0	1	0	0	CorrectCommission	0.645287	0.811042	0	0	5.158696e+01
101.713013	1.279414	city	10	1	1.250030	1.250030	0	1	0	0	CorrectCommission	0.168918	0.814471	0	0	5.221739e+01
102.992523	1.279602	city	7	1	1.175096	1.175096	0	1	0	0	CorrectCommission	0.063795	0.817508	0	0	5.284783e+01
104.272156	1.279662	city	4	1	1.068531	1.068531	0	1	0	0	CorrectCommission	0.394741	0.820150	0	0	5.347826e+01
105.551712	1.279460	city	5	1	0.819690	0.819690	0	1	0	0	CorrectCommission	1.167536	0.822346	0	0	5.410870e+01
106.831238	1.279592	city	6	1	1.611584	1.611584	0	1	0	0	CorrectCommission	1.291750	0.824092	0	0	5.473913e+01
108.110909	1.279742	city	9	1	1.496992	1.496992	0	1	0	0	CorrectCommission	0.935875	0.825596	0	0	5.536957e+01
112.042999	6.584442	break	0	0	0.000000	1.717844	0	0	0	0	ThoughtProbe	1.621748	0.827359	0	56	56
115.975037	1.279637	city	9	1	1.763571	1.763571	0	1	0	0	CorrectCommission	1.763757	0.830143	0	0	5.555882e+01
117.254654	1.279591	city	5	1	1.123602	1.123602	0	1	0	0	CorrectCommission	0.223715	0.834861	0	0	5.511765e+01
118.534233	1.279564	city	6	1	1.181613	1.181613	0	1	0	0	CorrectCommission	0.043558	0.842366	0	0	5.467647e+01
119.813721	1.279421	city	5	1	1.142459	1.142459	0	1	0	0	CorrectCommission	0.165153	0.853089	0	0	5.423529e+01
121.093307	1.279748	city	2	1	1.017830	1.017830	0	1	0	0	CorrectCommission	0.552197	0.866804	0	0	5.379412e+01
122.372963	1.279558	city	5	1	1.443414	1.443414	0	1	0	0	CorrectCommission	0.769485	0.882532	0	0	5.335294e+01
123.652596	1.279718	mountain	5	0	0.000000	1.478996	1	0	0	0	CorrectOmission	0.879989	0.898550	0	0	5.291176e+01
124.932121	1.279331	city	9	1	1.390009	1.390009	0	1	0	0	CorrectCommission	0.603633	0.912648	0	0	5.247059e+01
126.211624	1.279668	city	7	1	1.441884	1.441884	0	1	0	0	CorrectCommission	0.764734	0.922501	0	0	5.202941e+01
127.491234	1.279557	city	4	1	1.936778	1.936778	0	1	0	0	CorrectCommission	2.301664	0.926087	0	0	5.158824e+01
128.770828	1.279640	city	1	0	0.000000	1.945662	0	0	0	1	OmissionError	2.329252	0.922067	0	0	5.114706e+01
130.050446	1.279576	city	7	1	1.633665	1.633665	0	1	0	0	CorrectCommission	1.360323	0.910130	0	0	5.070588e+01
131.330017	1.279563	city	1	0	0.000000	1.165918	0	0	0	1	OmissionError	0.092300	0.891064	0	0	5.026471e+01
132.609543	1.279487	city	6	1	0.909419	0.909419	0	1	0	0	CorrectCommission	0.888876	0.866629	0	0	4.982353e+01
133.889069	1.279570	city	8	1	1.231167	1.231167	0	1	0	0	CorrectCommission	0.110336	0.839255	0	0	4.938235e+01
135.168701	1.279699	city	1	1	1.618901	1.618901	0	1	0	0	CorrectCommission	1.314472	0.811726	0	0	4.894118e+01
136.448334	1.279558	city	7	0	0.000000	1.317029	0	0	0	1	OmissionError	0.376987	0.786720	1	0	4.850000e+01
137.727890	1.279564	city	9	1	0.923754	0.923754	0	1	0	0	CorrectCommission	0.844357	0.766528	1	0	4.805882e+01
139.007462	1.279591	mountain	6	0	0.000000	1.037277	1	0	0	0	CorrectOmission	0.491802	0.752710	1	0	4.761765e+01
140.286987	1.279461	city	2	1	1.261361	1.261361	0	1	0	0	CorrectCommission	0.204106	0.746035	1	0	4.717647e+01
141.566513	1.279594	city	8	1	1.199765	1.199765	0	1	0	0	CorrectCommission	0.012817	0.746472	1	0	4.673529e+01
142.846085	1.279550	city	5	1	1.658992	1.658992	0	1	0	0	CorrectCommission	1.438978	0.753282	1	0	4.629412e+01
144.125641	1.279556	city	2	0	0.000000	1.429200	0	0	0	1	OmissionError	0.725342	0.765180	1	0	4.585294e+01
145.405319	1.279798	city	3	1	1.252335	1.252335	0	1	0	0	CorrectCommission	0.176076	0.780672	1	0	4.541176e+01
146.684998	1.279540	city	9	1	1.870343	1.870343	0	1	0	0	CorrectCommission	2.095344	0.798147	1	0	4.497059e+01
147.964554	1.279580	city	8	0	0.000000	1.507818	0	0	0	1	OmissionError	0.969497	0.816046	0	0	4.452941e+01
149.244080	1.279474	city	10	1	0.962226	0.962226	0	1	0	0	CorrectCommission	0.724881	0.833041	0	0	4.408824e+01
150.523651	1.279680	city	3	1	1.031030	1.031030	0	1	0	0	CorrectCommission	0.511203	0.848036	0	0	4.364706e+01
151.803284	1.279590	city	4	1	1.123485	1.123485	0	1	0	0	CorrectCommission	0.224077	0.860194	0	0	4.320588e+01
153.082855	1.279527	city	3	1	1.016947	1.016947	0	1	0	0	CorrectCommission	0.554940	0.868970	0	0	4.276471e+01
154.362335	1.279452	city	6	1	0.874651	0.874651	0	1	0	0	CorrectCommission	0.996849	0.874172	0	0	4.232353e+01
155.641876	1.279638	city	3	1	0.591171	0.591171	0	1	0	0	CorrectCommission	1.877218	0.876039	0	0	4.188235e+01
156.921494	1.279571	city	1	1	1.674650	1.674650	0	1	0	0	CorrectCommission	1.487607	0.875287	0	0	4.144118e+01
160.693634	6.264724	break	0	0	0.000000	1.613841	0	0	0	0	ThoughtProbe	1.298758	0.873147	0	41	41
164.465790	1.279581	city	2	1	1.121692	1.121692	0	1	0	0	CorrectCommission	0.229647	0.871262	0	0	4.080000e+01
165.745285	1.279420	mountain	5	1	0.911153	0.911153	0	0	1	0	CommissionError	0.883490	0.871513	0	0	4.060000e+01
167.024841	1.279673	city	8	1	0.964393	0.964393	0	1	0	0	CorrectCommission	0.718150	0.875748	0	0	4.040000e+01
168.304489	1.279639	city	4	1	1.284233	1.284233	0	1	0	0	CorrectCommission	0.275138	0.885501	0	0	4.020000e+01
169.584076	1.279521	city	1	1	1.071104	1.071104	0	1	0	0	CorrectCommission	0.386749	0.901766	0	0	40
170.863632	1.279615	city	4	1	0.963744	0.963744	0	1	0	0	CorrectCommission	0.720164	0.924765	0	0	3.980000e+01
172.143234	1.279585	city	5	1	1.471425	1.471425	0	1	0	0	CorrectCommission	0.856475	0.953889	0	0	3.960000e+01
173.422745	1.279436	city	9	1	1.420663	1.420663	0	1	0	0	CorrectCommission	0.698829	0.987750	0	0	3.940000e+01
174.702255	1.279571	city	1	1	1.892492	1.892492	0	1	0	0	CorrectCommission	2.164131	1.024325	0	0	3.920000e+01
175.981918	1.279753	city	4	0	0.000000	1.258788	0	0	0	1	OmissionError	0.196116	1.061117	0	0	39
177.261612	1.279627	city	7	1	0.751299	0.751299	0	1	0	0	CorrectCommission	1.379929	1.095538	0	0	3.880000e+01
178.541092	1.279361	city	9	1	1.601773	1.601773	0	1	0	0	CorrectCommission	1.261280	1.125034	0	0	3.860000e+01
179.820648	1.279740	mountain	10	0	0.000000	1.876481	1	0	0	0	CorrectOmission	2.114408	1.147336	0	0	3.840000e+01
181.100311	1.279594	city	9	1	1.711405	1.711405	0	1	0	0	CorrectCommission	1.601750	1.160654	0	0	3.820000e+01
182.379883	1.279536	city	6	0	0.000000	1.242523	0	0	0	1	OmissionError	0.145602	1.163803	0	0	38
183.659454	1.279606	city	9	1	1.088489	1.088489	0	1	0	0	CorrectCommission	0.332759	1.156269	0	0	3.780000e+01
184.938980	1.279434	city	7	1	1.867959	1.867959	0	1	0	0	CorrectCommission	2.087942	1.138216	0	0	3.760000e+01
186.218536	1.279695	city	5	0	0.000000	1.988352	0	0	0	1	OmissionError	2.461829	1.110489	0	0	3.740000e+01
187.498184	1.279594	city	6	0	0.000000	1.747756	0	0	0	1	OmissionError	1.714643	1.074627	0	0	3.720000e+01
188.777695	1.279424	city	8	1	1.444264	1.444264	0	1	0	0	CorrectCommission	0.772125	1.032716	0	0	37
190.057266	1.279730	mountain	1	0	0.000000	1.375965	1	0	0	0	CorrectOmission	0.560016	0.987222	0	0	3.680000e+01
191.336853	1.279451	city	2	1	1.390890	1.390890	0	1	0	0	CorrectCommission	0.606367	0.940739	0	0	3.660000e+01
192.616394	1.279610	city	7	1	1.337071	1.337071	0	1	0	0	CorrectCommission	0.439228	0.895756	0	0	3.640000e+01
193.896027	1.279651	city	2	1	1.336795	1.336795	0	1	0	0	CorrectCommission	0.438373	0.854404	0	0	3.620000e+01
195.175644	1.279594	city	5	1	1.512972	1.512972	0	1	0	0	CorrectCommission	0.985503	0.818288	0	0	36
196.455154	1.279437	city	3	1	1.502653	1.502653	0	1	0	0	CorrectCommission	0.953458	0.788353	1	0	3.580000e+01
197.734680	1.279602	city	8	1	1.604264	1.604264	0	1	0	0	CorrectCommission	1.269017	0.764845	1	0	3.560000e+01
199.014328	1.279711	city	2	1	1.337055	1.337055	0	1	0	0	CorrectCommission	0.439178	0.747320	1	0	3.540000e+01
200.293961	1.279537	city	9	1	1.283784	1.283784	0	1	0	0	CorrectCommission	0.273742	0.734746	1	0	3.520000e+01
201.573547	1.279634	city	10	1	1.123677	1.123677	0	1	0	0	CorrectCommission	0.223482	0.725656	1	0	35
202.853149	1.279566	city	8	1	1.230758	1.230758	0	1	0	0	CorrectCommission	0.109065	0.718329	1	0	3.480000e+01
204.132645	1.279432	city	1	1	1.336976	1.336976	0	1	0	0	CorrectCommission	0.438933	0.711119	1	0	3.460000e+01
205.412170	1.279610	city	5	1	1.817251	1.817251	0	1	0	0	CorrectCommission	1.930464	0.702651	1	0	3.440000e+01
206.691742	1.279543	city	6	1	1.817527	1.817527	0	1	0	0	CorrectCommission	1.931320	0.692074	1	0	3.420000e+01
207.971390	1.279755	city	4	1	1.550384	1.550384	0	1	0	0	CorrectCommission	1.101690	0.679248	1	0	34
209.251053	1.279585	city	2	1	1.182164	1.182164	0	1	0	0	CorrectCommission	0.041845	0.664804	1	0	3.380000e+01
210.530640	1.279573	city	6	1	1.230246	1.230246	0	1	0	0	CorrectCommission	0.107477	0.650012	1	0	3.360000e+01
211.810165	1.279478	city	2	1	0.961420	0.961420	0	1	0	0	CorrectCommission	0.727381	0.636539	1	0	3.340000e+01
213.089737	1.279680	city	8	1	1.124430	1.124430	0	1	0	0	CorrectCommission	0.221142	0.626174	1	0	3.320000e+01
216.348709	5.238257	break	0	1	1.068005	1.068005	0	0	0	0	ThoughtProbe	0.396375	0.620595	1	33	33
219.607559	1.279430	city	1	1	0.964195	0.964195	0	1	0	0	CorrectCommission	0.718763	0.621102	1	0	3.380000e+01
220.887146	1.279746	city	2	1	1.283830	1.283830	0	1	0	0	CorrectCommission	0.273886	0.628476	1	0	3.460000e+01
222.166794	1.279559	city	5	1	1.123692	1.123692	0	1	0	0	CorrectCommission	0.223433	0.642888	1	0	3.540000e+01
223.446365	1.279587	city	9	1	0.925450	0.925450	0	1	0	0	CorrectCommission	0.839089	0.663903	1	0	3.620000e+01
224.725952	1.279592	city	7	1	0.822417	0.822417	0	1	0	0	CorrectCommission	1.159067	0.690506	1	0	37
226.005463	1.279418	city	5	1	0.963778	0.963778	0	1	0	0	CorrectCommission	0.720060	0.721208	1	0	3.780000e+01
227.285034	1.279732	city	1	1	1.017280	1.017280	0	1	0	0	CorrectCommission	0.553904	0.754169	1	0	3.860000e+01
228.564651	1.279486	mountain	6	0	0.000000	1.158374	1	0	0	0	CorrectOmission	0.115728	0.787319	1	0	3.940000e+01
229.844223	1.279658	city	10	1	1.369304	1.369304	0	1	0	0	CorrectCommission	0.539330	0.818504	0	0	4.020000e+01
231.123825	1.279568	city	9	0	0.000000	1.632316	0	0	0	1	OmissionError	1.356134	0.845685	0	0	41
232.403351	1.279467	city	4	1	1.761418	1.761418	0	1	0	0	CorrectCommission	1.757069	0.867098	0	0	4.180000e+01
233.682938	1.279701	city	3	0	0.000000	1.570617	0	0	0	1	OmissionError	1.164522	0.881463	0	0	4.260000e+01
234.962555	1.279544	mountain	6	1	1.336801	1.336801	0	0	1	0	CommissionError	0.438390	0.888137	0	0	4.340000e+01
236.242096	1.279527	city	8	1	1.336858	1.336858	0	1	0	0	CorrectCommission	0.438566	0.887198	0	0	4.420000e+01
237.521637	1.279558	city	9	1	1.890147	1.890147	0	1	0	0	CorrectCommission	2.156846	0.879412	0	0	45
238.801270	1.279702	city	2	0	0.000000	1.711176	0	0	0	1	OmissionError	1.601040	0.866155	0	0	4.580000e+01
240.080887	1.279540	city	6	1	1.337327	1.337327	0	1	0	0	CorrectCommission	0.440023	0.849304	0	0	4.660000e+01
241.360458	1.279625	city	5	1	1.305979	1.305979	0	1	0	0	CorrectCommission	0.342671	0.830966	0	0	4.740000e+01
242.640060	1.279551	city	1	1	1.390186	1.390186	0	1	0	0	CorrectCommission	0.604182	0.813125	0	0	4.820000e+01
243.919632	1.279609	city	9	1	1.337315	1.337315	0	1	0	0	CorrectCommission	0.439988	0.797395	1	0	49
245.199219	1.279554	city	4	1	1.497335	1.497335	0	1	0	0	CorrectCommission	0.936940	0.784845	1	0	4.980000e+01
246.478806	1.279619	mountain	6	0	0.000000	1.191191	1	0	0	0	CorrectOmission	0.013811	0.775854	1	0	5.060000e+01
247.758392	1.279562	city	4	1	0.856978	0.856978	0	1	0	0	CorrectCommission	1.051734	0.770151	1	0	5.140000e+01
249.037888	1.279444	city	8	1	0.932788	0.932788	0	1	0	0	CorrectCommission	0.816301	0.766867	1	0	5.220000e+01
250.317474	1.279713	city	4	1	0.990763	0.990763	0	1	0	0	CorrectCommission	0.636256	0.764785	1	0	53
251.597061	1.279462	city	6	1	0.855038	0.855038	0	1	0	0	CorrectCommission	1.057761	0.762533	1	0	5.380000e+01
252.876556	1.279540	city	3	1	0.804573	0.804573	0	1	0	0	CorrectCommission	1.214483	0.758787	1	0	5.460000e+01
254.156174	1.279668	city	6	1	1.017095	1.017095	0	1	0	0	CorrectCommission	0.554480	0.752467	1	0	5.540000e+01
255.435822	1.279646	city	4	1	0.862713	0.862713	0	1	0	0	CorrectCommission	1.033924	0.742846	1	0	5.620000e+01
256.715363	1.279458	city	7	1	0.963619	0.963619	0	1	0	0	CorrectCommission	0.720555	0.729527	1	0	57
257.994965	1.279703	city	5	1	0.910315	0.910315	0	1	0	0	CorrectCommission	0.886092	0.712458	1	0	5.780000e+01
259.274536	1.279486	city	4	1	0.986615	0.986615	0	1	0	0	CorrectCommission	0.649137	0.691817	1	0	5.860000e+01
260.554138	1.279675	city	7	1	1.017005	1.017005	0	1	0	0	CorrectCommission	0.554760	0.667956	1	0	5.940000e+01
261.833679	1.279422	city	9	1	1.176887	1.176887	0	1	0	0	CorrectCommission	0.058233	0.641346	1	0	6.020000e+01
263.113251	1.279720	city	6	1	1.017133	1.017133	0	1	0	0	CorrectCommission	0.554363	0.612581	1	0	61
264.392853	1.279459	city	5	1	0.887080	0.887080	0	1	0	0	CorrectCommission	0.958251	0.582379	1	0	6.180000e+01
265.672424	1.279705	city	7	1	0.712653	0.712653	0	1	0	0	CorrectCommission	1.499946	0.551589	1	0	6.260000e+01
266.952057	1.279532	city	1	1	1.015523	1.015523	0	1	0	0	CorrectCommission	0.559362	0.521244	1	0	6.340000e+01
268.231750	1.279886	city	7	1	1.177930	1.177930	0	1	0	0	CorrectCommission	0.054995	0.492596	1	0	6.420000e+01
272.710297	7.677195	break	0	0	0.000000	1.268774	0	0	0	0	ThoughtProbe	0.227127	0.466940	1	65	65
277.188660	1.279567	city	3	1	1.301012	1.301012	0	1	0	0	CorrectCommission	0.327244	0.445536	1	0	6.450000e+01
278.468262	1.279605	city	8	1	1.287600	1.287600	0	1	0	0	CorrectCommission	0.285593	0.429460	1	0	64
279.747864	1.279595	city	4	1	1.123503	1.123503	0	1	0	0	CorrectCommission	0.224023	0.419458	1	0	6.350000e+01
281.027435	1.279564	mountain	6	0	0.000000	1.211617	1	0	0	0	CorrectOmission	0.049623	0.415847	1	0	63
282.307007	1.279588	city	6	1	1.336830	1.336830	0	1	0	0	CorrectCommission	0.438480	0.418448	1	0	6.250000e+01
283.586517	1.279398	city	5	1	1.284028	1.284028	0	1	0	0	CorrectCommission	0.274500	0.426597	1	0	62
284.865997	1.279589	city	7	1	1.075675	1.075675	0	1	0	0	CorrectCommission	0.372554	0.439251	1	0	6.150000e+01
286.145691	1.279796	city	4	1	0.977815	0.977815	0	1	0	0	CorrectCommission	0.676466	0.455089	1	0	61
287.425293	1.279428	mountain	8	0	0.000000	1.198866	1	0	0	0	CorrectOmission	0.010023	0.472651	1	0	6.050000e+01
288.704834	1.279632	city	9	1	1.476437	1.476437	0	1	0	0	CorrectCommission	0.872042	0.490541	1	0	60
289.984406	1.279483	city	8	1	1.548140	1.548140	0	1	0	0	CorrectCommission	1.094720	0.507493	1	0	5.950000e+01
291.264008	1.279725	city	6	1	1.388952	1.388952	0	1	0	0	CorrectCommission	0.600350	0.522503	1	0	59
292.543579	1.279468	city	1	1	1.123942	1.123942	0	1	0	0	CorrectCommission	0.222657	0.534902	1	0	5.850000e+01
293.823151	1.279654	city	9	1	1.122357	1.122357	0	1	0	0	CorrectCommission	0.227582	0.544384	1	0	58
295.102692	1.279433	city	2	1	0.939092	0.939092	0	1	0	0	CorrectCommission	0.796723	0.551013	1	0	5.750000e+01
296.382294	1.279753	city	9	1	1.335097	1.335097	0	1	0	0	CorrectCommission	0.433098	0.555224	1	0	57
297.661865	1.279423	city	3	1	1.022131	1.022131	0	1	0	0	CorrectCommission	0.538839	0.557815	1	0	5.650000e+01
298.941406	1.279655	city	10	1	0.697340	0.697340	0	1	0	0	CorrectCommission	1.547503	0.559849	1	0	56
300.221069	1.279659	city	9	1	1.209829	1.209829	0	1	0	0	CorrectCommission	0.044070	0.562566	1	0	5.550000e+01
301.500702	1.279567	city	10	1	1.020711	1.020711	0	1	0	0	CorrectCommission	0.543250	0.567325	1	0	5.500000e+01
302.780273	1.279585	mountain	7	1	1.017709	1.017709	0	0	1	0	CommissionError	0.552572	0.575332	1	0	5.450000e+01
304.059753	1.279409	mountain	4	1	0.930050	0.930050	0	0	1	0	CommissionError	0.824804	0.587486	1	0	54
305.339355	1.279768	city	8	1	1.180091	1.180091	0	1	0	0	CorrectCommission	0.048284	0.604183	1	0	5.350000e+01
306.618927	1.279392	city	9	1	1.263691	1.263691	0	1	0	0	CorrectCommission	0.211342	0.625214	1	0	53
307.898499	1.279746	city	4	1	1.231264	1.231264	0	1	0	0	CorrectCommission	0.110639	0.649683	1	0	5.250000e+01
309.178101	1.279434	city	9	1	1.081045	1.081045	0	1	0	0	CorrectCommission	0.355878	0.676172	1	0	52
310.457672	1.279743	city	10	1	0.915511	0.915511	0	1	0	0	CorrectCommission	0.869955	0.702923	1	0	5.150000e+01
311.737244	1.279402	city	2	1	0.930385	0.930385	0	1	0	0	CorrectCommission	0.823765	0.728176	1	0	51
313.016815	1.279707	city	3	1	0.701256	0.701256	0	1	0	0	CorrectCommission	1.535340	0.750472	1	0	5.050000e+01
314.296387	1.279459	city	9	1	0.487523	0.487523	0	1	0	0	CorrectCommission	2.199104	0.768908	1	0	50
315.575989	1.279749	city	6	1	0.930152	0.930152	0	1	0	0	CorrectCommission	0.824488	0.783275	1	0	4.950000e+01
316.855652	1.279576	city	3	1	1.070999	1.070999	0	1	0	0	CorrectCommission	0.387077	0.794030	1	0	49
318.135162	1.279416	city	5	1	1.234067	1.234067	0	1	0	0	CorrectCommission	0.119342	0.802090	0	0	4.850000e+01
319.414734	1.279746	city	10	1	1.050621	1.050621	0	1	0	0	CorrectCommission	0.450363	0.808552	0	0	48
320.694336	1.279444	city	6	1	1.496891	1.496891	0	1	0	0	CorrectCommission	0.935563	0.814384	0	0	4.750000e+01
321.973907	1.279703	city	9	1	1.662352	1.662352	0	1	0	0	CorrectCommission	1.449412	0.820164	0	0	47
323.253479	1.279474	city	1	1	1.233998	1.233998	0	1	0	0	CorrectCommission	0.119129	0.825913	0	0	4.650000e+01
324.532990	1.279531	city	9	1	1.073471	1.073471	0	1	0	0	CorrectCommission	0.379399	0.831127	0	0	46
325.812561	1.279589	city	2	1	0.975092	0.975092	0	1	0	0	CorrectCommission	0.684922	0.834860	0	0	4.550000e+01
327.092224	1.279738	city	3	1	0.963799	0.963799	0	1	0	0	CorrectCommission	0.719995	0.835969	0	0	45
328.371796	1.279442	city	8	1	0.696993	0.696993	0	1	0	0	CorrectCommission	1.548580	0.833476	0	0	4.450000e+01
329.651367	1.279663	city	5	1	0.588662	0.588662	0	1	0	0	CorrectCommission	1.885010	0.826789	0	0	44
330.931000	1.279625	city	2	1	0.591020	0.591020	0	1	0	0	CorrectCommission	1.877687	0.815918	0	0	4.350000e+01
332.210510	1.279406	city	10	1	1.127419	1.127419	0	1	0	0	CorrectCommission	0.211860	0.801516	0	0	43
333.490082	1.279713	city	5	1	1.354916	1.354916	0	1	0	0	CorrectCommission	0.494649	0.784851	1	0	4.250000e+01
334.129944	8.023945	break	0	0	0.000000	1.197278	0	0	0	0	ThoughtProbe	0.005092	0.767509	1	42	42
342.793732	1.279690	city	7	1	1.020417	1.020417	0	1	0	0	CorrectCommission	0.544162	0.751197	1	0	4.197059e+01
344.073334	1.279550	city	6	1	1.190246	1.190246	0	1	0	0	CorrectCommission	0.016747	0.737449	1	0	4.194118e+01
345.352875	1.279502	city	3	1	0.808943	0.808943	0	1	0	0	CorrectCommission	1.200910	0.727453	1	0	4.191176e+01
346.632446	1.279674	mountain	6	1	0.763563	0.763563	0	0	1	0	CommissionError	1.341840	0.721895	1	0	4.188235e+01
347.912018	1.279435	city	7	1	1.025358	1.025358	0	1	0	0	CorrectCommission	0.528819	0.720965	1	0	4.185294e+01
349.224854	1.346233	city	2	1	0.906191	0.906191	0	1	0	0	CorrectCommission	0.898900	0.724366	1	0	4.182353e+01
350.551056	1.306219	city	9	1	1.077186	1.077186	0	1	0	0	CorrectCommission	0.367864	0.731359	1	0	4.179412e+01
351.857330	1.306274	city	1	1	1.127658	1.127658	0	1	0	0	CorrectCommission	0.211118	0.740866	1	0	4.176471e+01
353.150238	1.279558	city	8	1	0.966984	0.966984	0	1	0	0	CorrectCommission	0.710102	0.751549	1	0	4.173529e+01
354.429871	1.279729	city	10	1	0.871910	0.871910	0	1	0	0	CorrectCommission	1.005363	0.761916	1	0	4.170588e+01
355.709534	1.279589	city	9	1	0.974194	0.974194	0	1	0	0	CorrectCommission	0.687712	0.770474	1	0	4.167647e+01
356.995697	1.292722	city	2	1	0.875536	0.875536	0	1	0	0	CorrectCommission	0.994100	0.775888	1	0	4.164706e+01
358.281921	1.279739	city	4	1	0.970380	0.970380	0	1	0	0	CorrectCommission	0.699556	0.777135	1	0	4.161765e+01
359.561523	1.279459	city	5	1	0.763924	0.763924	0	1	0	0	CorrectCommission	1.340722	0.773627	1	0	4.158824e+01
360.841095	1.279717	city	1	1	1.660148	1.660148	0	1	0	0	CorrectCommission	1.442568	0.765245	1	0	4.155882e+01
362.120697	1.279468	city	8	1	1.473807	1.473807	0	1	0	0	CorrectCommission	0.863872	0.752368	1	0	4.152941e+01
363.400208	1.279576	mountain	4	0	0.000000	1.229242	1	0	0	0	CorrectOmission	0.104357	0.735787	1	0	4.150000e+01
364.679871	1.279700	city	3	1	1.029802	1.029802	0	1	0	0	CorrectCommission	0.515016	0.716577	1	0	4.147059e+01
365.959503	1.279578	city	1	1	0.978838	0.978838	0	1	0	0	CorrectCommission	0.673289	0.695906	1	0	4.144118e+01
367.239044	1.279530	city	5	1	0.935094	0.935094	0	1	0	0	CorrectCommission	0.809138	0.674924	1	0	4.141176e+01
368.525238	1.292857	city	9	1	0.925924	0.925924	0	1	0	0	CorrectCommission	0.837618	0.654615	1	0	4.138235e+01
369.818085	1.292841	city	2	1	1.034947	1.034947	0	1	0	0	CorrectCommission	0.499039	0.635749	1	0	4.135294e+01
371.104401	1.279760	city	4	1	1.083086	1.083086	0	1	0	0	CorrectCommission	0.349539	0.618839	1	0	4.132353e+01
372.410706	1.332872	city	10	1	1.046392	1.046392	0	1	0	0	CorrectCommission	0.463497	0.604199	1	0	4.129412e+01
373.716949	1.279587	city	6	1	0.975244	0.975244	0	1	0	0	CorrectCommission	0.684450	0.591988	1	0	4.126471e+01
375.003113	1.292740	city	4	1	1.053507	1.053507	0	1	0	0	CorrectCommission	0.441399	0.582333	1	0	4.123529e+01
376.289307	1.279635	city	1	1	1.026406	1.026406	0	1	0	0	CorrectCommission	0.525565	0.575439	1	0	4.120588e+01
377.568939	1.279678	city	6	1	0.923487	0.923487	0	1	0	0	CorrectCommission	0.845185	0.571640	1	0	4.117647e+01
378.848572	1.279580	city	7	1	0.914386	0.914386	0	1	0	0	CorrectCommission	0.873451	0.571448	1	0	4.114706e+01
380.128174	1.279591	city	6	1	1.403210	1.403210	0	1	0	0	CorrectCommission	0.644628	0.575506	1	0	4.111765e+01
381.407745	1.279580	city	7	1	1.340892	1.340892	0	1	0	0	CorrectCommission	0.451096	0.584474	1	0	4.108824e+01
382.693939	1.292771	city	3	1	1.219663	1.219663	0	1	0	0	CorrectCommission	0.074609	0.598875	1	0	4.105882e+01
383.980164	1.279707	city	8	0	0.000000	1.152332	0	0	0	1	OmissionError	0.134490	0.618932	1	0	4.102941e+01
387.192505	5.144945	break	0	0	0.000000	1.100975	0	0	0	0	ThoughtProbe	0.293984	0.644409	1	41	41
390.411346	1.292771	city	10	1	1.027665	1.027665	0	1	0	0	CorrectCommission	0.521655	0.674550	1	0	4.080000e+01
391.704254	1.293031	city	3	1	0.894474	0.894474	0	1	0	0	CorrectCommission	0.935288	0.708051	1	0	4.060000e+01
393.003876	1.306246	city	1	1	0.794439	0.794439	0	1	0	0	CorrectCommission	1.245954	0.743144	1	0	4.040000e+01
394.310150	1.306276	city	4	1	1.595716	1.595716	0	1	0	0	CorrectCommission	1.242469	0.777738	1	0	4.020000e+01
395.609650	1.292741	mountain	10	1	1.269908	1.269908	0	0	1	0	CommissionError	0.230648	0.809618	0	0	40
396.895905	1.279728	city	6	1	1.076432	1.076432	0	1	0	0	CorrectCommission	0.370203	0.836686	0	0	3.980000e+01
398.175568	1.279599	city	3	1	0.868415	0.868415	0	1	0	0	CorrectCommission	1.016217	0.857099	0	0	3.960000e+01
399.455139	1.279577	city	7	1	0.826245	0.826245	0	1	0	0	CorrectCommission	1.147177	0.869526	0	0	3.940000e+01
400.748047	1.306259	city	3	1	0.675735	0.675735	0	1	0	0	CorrectCommission	1.614599	0.873364	0	0	3.920000e+01
402.040955	1.279553	city	5	1	1.675360	1.675360	0	1	0	0	CorrectCommission	1.489810	0.868859	0	0	39
403.320526	1.279547	mountain	8	0	0.000000	1.701381	1	0	0	0	CorrectOmission	1.570620	0.857145	0	0	3.880000e+01
404.600006	1.279456	city	6	1	1.333396	1.333396	0	1	0	0	CorrectCommission	0.427815	0.840144	0	0	3.860000e+01
405.886292	1.293071	city	8	1	1.151002	1.151002	0	1	0	0	CorrectCommission	0.138621	0.820411	0	0	3.840000e+01
407.172516	1.279411	city	7	1	0.966830	0.966830	0	1	0	0	CorrectCommission	0.710582	0.800838	1	0	3.820000e+01
408.452087	1.279746	city	9	1	0.968992	0.968992	0	1	0	0	CorrectCommission	0.703867	0.784329	1	0	38
409.731750	1.279536	city	8	1	0.976309	0.976309	0	1	0	0	CorrectCommission	0.681145	0.773481	1	0	3.780000e+01
411.011322	1.279608	city	2	1	0.928998	0.928998	0	1	0	0	CorrectCommission	0.828072	0.770282	1	0	3.760000e+01
412.304169	1.306081	mountain	5	1	0.998563	0.998563	0	0	1	0	CommissionError	0.612033	0.775869	1	0	3.740000e+01
413.597076	1.279745	city	5	1	1.405341	1.405341	0	1	0	0	CorrectCommission	0.651247	0.790356	1	0	3.720000e+01
414.876678	1.279481	city	10	1	1.071119	1.071119	0	1	0	0	CorrectCommission	0.386705	0.812836	0	0	37
416.156219	1.279604	city	8	1	1.241327	1.241327	0	1	0	0	CorrectCommission	0.141889	0.841470	0	0	3.680000e+01
417.435852	1.279655	city	2	1	1.090363	1.090363	0	1	0	0	CorrectCommission	0.326942	0.873715	0	0	3.660000e+01
418.715454	1.279530	city	8	1	0.995676	0.995676	0	1	0	0	CorrectCommission	0.620998	0.906688	0	0	3.640000e+01
419.995026	1.279620	city	5	1	0.764049	0.764049	0	1	0	0	CorrectCommission	1.340334	0.937591	0	0	3.620000e+01
421.274567	1.279459	city	9	1	2.268405	2.268405	0	1	0	0	CorrectCommission	3.331555	0.964107	0	0	36
422.554108	1.279600	city	5	1	1.688106	1.688106	0	1	0	0	CorrectCommission	1.529393	0.984691	0	0	3.580000e+01
423.853638	1.319496	city	7	1	1.287410	1.287410	0	1	0	0	CorrectCommission	0.285002	0.998890	0	0	3.560000e+01
425.173157	1.319559	city	4	1	1.031476	1.031476	0	1	0	0	CorrectCommission	0.509818	1.007202	0	0	3.540000e+01
426.472778	1.279635	city	10	1	0.761446	0.761446	0	1	0	0	CorrectCommission	1.348418	1.010890	0	0	3.520000e+01
427.759094	1.293041	city	9	1	1.695051	1.695051	0	1	0	0	CorrectCommission	1.550961	1.011664	0	0	35
429.052094	1.292911	city	10	1	1.418047	1.418047	0	1	0	0	CorrectCommission	0.690705	1.011312	0	0	3.480000e+01
430.338257	1.279412	city	4	1	1.247869	1.247869	0	1	0	0	CorrectCommission	0.162205	1.011371	0	0	3.460000e+01
431.631134	1.306377	city	6	1	1.115621	1.115621	0	1	0	0	CorrectCommission	0.248498	1.012862	0	0	3.440000e+01
432.924133	1.279598	city	1	1	0.887133	0.887133	0	1	0	0	CorrectCommission	0.958085	1.016197	0	0	3.420000e+01
434.217041	1.306234	city	4	1	0.797044	0.797044	0	1	0	0	CorrectCommission	1.237865	1.021201	0	0	34
435.523254	1.306206	city	10	1	0.596486	0.596486	0	1	0	0	CorrectCommission	1.860712	1.027254	0	0	3.380000e+01
436.816071	1.279438	city	1	1	0.559197	0.559197	0	1	0	0	CorrectCommission	1.976517	1.033480	0	0	3.360000e+01
438.095673	1.279744	city	6	1	1.124316	1.124316	0	1	0	0	CorrectCommission	0.221498	1.038941	0	0	3.340000e+01
439.408661	1.346210	city	10	1	0.872692	0.872692	0	1	0	0	CorrectCommission	1.002933	1.042807	0	0	3.320000e+01
442.547546	4.931560	break	0	1	0.874433	0.874433	0	0	0	0	ThoughtProbe	0.997526	1.044334	0	33	33
445.653168	1.279731	city	3	1	1.015105	1.015105	0	1	0	0	CorrectCommission	0.560659	1.042934	0	0	3.293478e+01
446.932831	1.279598	city	7	1	0.750426	0.750426	0	1	0	0	CorrectCommission	1.382641	1.038114	0	0	3.286957e+01
448.212341	1.279398	city	2	1	1.735563	1.735563	0	1	0	0	CorrectCommission	1.676776	1.029383	0	0	3.280435e+01
449.491913	1.279770	city	9	1	1.601661	1.601661	0	1	0	0	CorrectCommission	1.260933	1.016236	0	0	3.273913e+01
450.771515	1.279415	city	3	0	0.000000	1.198316	0	0	0	1	OmissionError	0.008317	0.998147	0	0	3.267391e+01
452.051025	1.279623	city	4	1	0.857547	0.857547	0	1	0	0	CorrectCommission	1.049967	0.974611	0	0	3.260870e+01
453.330688	1.279691	city	6	1	0.911371	0.911371	0	1	0	0	CorrectCommission	0.882812	0.945136	0	0	3.254348e+01
454.610321	1.279572	city	10	1	0.644175	0.644175	0	1	0	0	CorrectCommission	1.712611	0.909475	0	0	3.247826e+01
455.889862	1.279468	city	6	1	0.643578	0.643578	0	1	0	0	CorrectCommission	1.714464	0.867663	0	0	3.241304e+01
457.169434	1.279683	city	9	1	0.979702	0.979702	0	1	0	0	CorrectCommission	0.670606	0.820120	0	0	3.234783e+01
458.449066	1.279587	city	3	1	1.122428	1.122428	0	1	0	0	CorrectCommission	0.227359	0.767702	1	0	3.228261e+01
459.728546	1.279411	city	5	1	1.390453	1.390453	0	1	0	0	CorrectCommission	0.605011	0.711653	1	0	3.221739e+01
461.008148	1.279778	mountain	7	0	0.000000	1.520514	1	0	0	0	CorrectOmission	1.008926	0.653557	1	0	3.215217e+01
462.287720	1.279384	city	1	1	1.496790	1.496790	0	1	0	0	CorrectCommission	0.935248	0.595206	1	0	3.208696e+01
463.567322	1.279802	mountain	1	0	0.000000	1.303457	1	0	0	0	CorrectOmission	0.334839	0.538481	1	0	3.202174e+01
464.846924	1.279398	city	1	1	1.133788	1.133788	0	1	0	0	CorrectCommission	0.192080	0.485174	1	0	3.195652e+01
466.126465	1.279695	city	2	1	1.181055	1.181055	0	1	0	0	CorrectCommission	0.045291	0.436853	1	0	3.189130e+01
467.406097	1.279581	city	3	1	1.086286	1.086286	0	1	0	0	CorrectCommission	0.339603	0.394783	1	0	3.182609e+01
468.685699	1.279588	city	6	1	1.230376	1.230376	0	1	0	0	CorrectCommission	0.107879	0.359831	1	0	3.176087e+01
469.965302	1.279604	city	8	1	1.337410	1.337410	0	1	0	0	CorrectCommission	0.440282	0.332555	1	0	3.169565e+01
471.244812	1.279435	mountain	8	0	0.000000	1.283418	1	0	0	0	CorrectOmission	0.272607	0.313184	1	0	3.163043e+01
472.524384	1.279727	city	9	0	0.000000	1.181242	0	0	0	1	OmissionError	0.044710	0.301738	1	0	3.156522e+01
473.803955	1.279369	city	2	1	1.143721	1.143721	0	1	0	0	CorrectCommission	0.161233	0.298117	1	0	3.150000e+01
475.083496	1.279764	city	8	1	1.283698	1.283698	0	1	0	0	CorrectCommission	0.273475	0.302160	1	0	3.143478e+01
476.363190	1.279577	city	4	1	1.143631	1.143631	0	1	0	0	CorrectCommission	0.161512	0.313724	1	0	3.136957e+01
477.642761	1.279577	city	7	1	1.241160	1.241160	0	1	0	0	CorrectCommission	0.141371	0.332687	1	0	3.130435e+01
478.922333	1.279553	city	6	1	1.443578	1.443578	0	1	0	0	CorrectCommission	0.769994	0.358920	1	0	3.123913e+01
480.201813	1.279465	city	10	1	1.068106	1.068106	0	1	0	0	CorrectCommission	0.396062	0.392146	1	0	3.117391e+01
481.481445	1.279757	city	8	1	1.121998	1.121998	0	1	0	0	CorrectCommission	0.228697	0.431875	1	0	3.110870e+01
482.761017	1.279370	city	6	1	1.281514	1.281514	0	1	0	0	CorrectCommission	0.266692	0.477259	1	0	3.104348e+01
484.040558	1.279732	city	3	1	1.195017	1.195017	0	1	0	0	CorrectCommission	0.001930	0.527008	1	0	3.097826e+01
485.320221	1.279600	city	7	1	1.300621	1.300621	0	1	0	0	CorrectCommission	0.326032	0.579416	1	0	3.091304e+01
486.599762	1.279515	city	5	1	1.177448	1.177448	0	1	0	0	CorrectCommission	0.056492	0.632450	1	0	3.084783e+01
487.879303	1.279544	city	4	1	0.865766	0.865766	0	1	0	0	CorrectCommission	1.024443	0.683974	1	0	3.078261e+01
489.158813	1.279492	city	6	1	0.804501	0.804501	0	1	0	0	CorrectCommission	1.214706	0.731986	1	0	3.071739e+01
490.438446	1.279767	city	2	1	0.751050	0.751050	0	1	0	0	CorrectCommission	1.380702	0.774918	1	0	3.065217e+01
491.718048	1.279417	mountain	7	1	0.535352	0.535352	0	0	1	0	CommissionError	2.050566	0.811893	0	0	3.058696e+01
492.997620	1.279713	city	1	1	1.084916	1.084916	0	1	0	0	CorrectCommission	0.343856	0.842799	0	0	3.052174e+01
494.277252	1.279568	city	5	1	0.968207	0.968207	0	1	0	0	CorrectCommission	0.706305	0.868321	0	0	3.045652e+01
495.556824	1.279592	city	8	1	0.910262	0.910262	0	1	0	0	CorrectCommission	0.886257	0.889685	0	0	3.039130e+01
496.836426	1.279573	city	4	1	0.803740	0.803740	0	1	0	0	CorrectCommission	1.217070	0.908417	0	0	3.032609e+01
498.115967	1.279560	city	5	1	1.017024	1.017024	0	1	0	0	CorrectCommission	0.554701	0.926018	0	0	3.026087e+01
499.395508	1.279499	city	4	1	1.088081	1.088081	0	1	0	0	CorrectCommission	0.334028	0.943697	0	0	3.019565e+01
500.675110	1.279703	city	8	1	0.923171	0.923171	0	1	0	0	CorrectCommission	0.846166	0.962161	0	0	3.013043e+01
501.954742	1.279544	city	10	1	0.911869	0.911869	0	1	0	0	CorrectCommission	0.881267	0.981545	0	0	3.006522e+01
504.934021	4.679053	break	0	0	0.873147	0.873147	0	0	0	0	ThoughtProbe	1.001519	1.001519	0	30	30
