onset	duration	trial_type	image_type	Press	ReactionTime	ReactionTime_Interpolated	CorrectOmission	CorrectCommission	CommissionError	OmissionError	response_type	nonsmoothVarianceTimeCourse	VarianceTimeCourse	In_the_Zone	ThoughtProbe	ThoughtProbe_Interpolated
0.652876	1.279706	city	6	1	1.728754	1.728754	0	1	0	0	CorrectCommission	2.302482	2.302482	0	0	44
1.932513	1.279567	city	3	1	1.282532	1.282532	0	1	0	0	CorrectCommission	0.065237	2.179106	0	0	44
3.212096	1.279598	city	6	1	1.073400	1.073400	0	1	0	0	CorrectCommission	0.983300	2.059457	0	0	44
4.491672	1.279555	city	5	1	0.940569	0.940569	0	1	0	0	CorrectCommission	1.649282	1.946590	0	0	44
5.771250	1.279602	city	1	1	0.962221	0.962221	0	1	0	0	CorrectCommission	1.540725	1.842477	0	0	44
7.050847	1.279592	city	6	1	1.015753	1.015753	0	1	0	0	CorrectCommission	1.272328	1.747782	0	0	44
8.330414	1.279543	city	3	1	0.962647	0.962647	0	1	0	0	CorrectCommission	1.538586	1.661840	0	0	44
9.609978	1.279583	city	5	1	0.855751	0.855751	0	1	0	0	CorrectCommission	2.074535	1.582914	0	0	44
10.889556	1.279574	city	10	1	0.911276	0.911276	0	1	0	0	CorrectCommission	1.796150	1.508653	0	0	44
12.169135	1.279584	city	5	1	0.940239	0.940239	0	1	0	0	CorrectCommission	1.650934	1.436551	0	0	44
13.448727	1.279598	city	9	1	0.995063	0.995063	0	1	0	0	CorrectCommission	1.376058	1.364481	0	0	44
14.728315	1.279579	city	3	1	1.023549	1.023549	0	1	0	0	CorrectCommission	1.233239	1.290999	0	0	44
16.007883	1.279556	mountain	6	1	0.803090	0.803090	0	0	1	0	CommissionError	2.338567	1.215577	0	0	44
17.287462	1.279605	mountain	2	0	0.000000	1.185457	1	0	0	0	CorrectOmission	0.421472	1.138625	0	0	44
18.567053	1.279574	city	7	1	1.515026	1.515026	0	1	0	0	CorrectCommission	1.230905	1.061471	0	0	44
19.853294	1.292910	city	10	1	1.136172	1.136172	0	1	0	0	CorrectCommission	0.668575	0.986018	0	0	44
21.139528	1.279557	mountain	6	1	1.092968	1.092968	0	0	1	0	CommissionError	0.885191	0.914518	0	0	44
22.419104	1.279596	city	3	1	1.442272	1.442272	0	1	0	0	CorrectCommission	0.866131	0.849232	0	0	44
23.698618	1.279431	city	5	1	1.282141	1.282141	0	1	0	0	CorrectCommission	0.063277	0.792167	0	0	44
24.978189	1.279714	city	2	1	1.187027	1.187027	0	1	0	0	CorrectCommission	0.413602	0.744875	0	0	44
26.257833	1.279571	city	5	1	1.495586	1.495586	0	1	0	0	CorrectCommission	1.133437	0.708222	0	0	44
27.537409	1.279581	city	4	1	1.190944	1.190944	0	1	0	0	CorrectCommission	0.393962	0.682327	0	0	44
28.817001	1.279606	city	5	1	1.182269	1.182269	0	1	0	0	CorrectCommission	0.437456	0.666615	0	0	44
30.096600	1.279587	city	4	1	1.192167	1.192167	0	1	0	0	CorrectCommission	0.387831	0.659835	1	0	44
31.376167	1.279550	city	2	1	1.181826	1.181826	0	1	0	0	CorrectCommission	0.439677	0.660170	1	0	44
32.655731	1.279575	city	6	1	1.229077	1.229077	0	1	0	0	CorrectCommission	0.202774	0.665381	0	0	44
33.935287	1.279537	city	9	1	1.153851	1.153851	0	1	0	0	CorrectCommission	0.579938	0.673057	0	0	44
35.214874	1.279638	city	5	1	0.941384	0.941384	0	1	0	0	CorrectCommission	1.645192	0.680835	0	0	44
36.494480	1.279578	city	4	1	1.130244	1.130244	0	1	0	0	CorrectCommission	0.698296	0.686620	0	0	44
37.787392	1.306241	city	1	1	1.075366	1.075366	0	1	0	0	CorrectCommission	0.973439	0.688833	0	0	44
39.093624	1.306221	city	3	1	1.120729	1.120729	0	1	0	0	CorrectCommission	0.746004	0.686483	0	0	44
40.393116	1.292764	city	9	1	1.141700	1.141700	0	1	0	0	CorrectCommission	0.640859	0.679263	0	0	44
41.686020	1.293047	mountain	9	0	0.000000	1.393045	1	0	0	0	CorrectOmission	0.619320	0.667530	0	0	44
42.979012	1.292933	city	5	1	1.501891	1.501891	0	1	0	0	CorrectCommission	1.165046	0.652180	1	0	44
44.278584	1.306216	city	10	1	1.095366	1.095366	0	1	0	0	CorrectCommission	0.873167	0.634453	1	0	44
45.571472	1.279559	city	8	1	1.298042	1.298042	0	1	0	0	CorrectCommission	0.142998	0.615808	1	0	44
46.857708	1.292911	city	2	1	1.235014	1.235014	0	1	0	0	CorrectCommission	0.173005	0.597662	1	0	44
48.170628	1.332927	city	9	1	1.216653	1.216653	0	1	0	0	CorrectCommission	0.265061	0.581223	1	0	44
49.490219	1.306255	city	2	1	1.024247	1.024247	0	1	0	0	CorrectCommission	1.229740	0.567336	1	0	44
50.783119	1.279544	city	3	1	1.207553	1.207553	0	1	0	0	CorrectCommission	0.310688	0.556420	1	0	44
52.082703	1.319626	city	2	1	1.195102	1.195102	0	1	0	0	CorrectCommission	0.373117	0.548492	1	0	44
53.402283	1.319535	city	1	1	1.235771	1.235771	0	1	0	0	CorrectCommission	0.169211	0.543184	1	0	44
54.701836	1.279573	city	6	1	1.345948	1.345948	0	1	0	0	CorrectCommission	0.383191	0.539881	1	0	44
56.028061	1.372876	city	10	1	0.992325	0.992325	0	1	0	0	CorrectCommission	1.389789	0.537844	1	0	44
57.367619	1.306239	city	5	1	1.194717	1.194717	0	1	0	0	CorrectCommission	0.375044	0.536372	1	0	44
58.020737	8.877082	break	0	0	0.000000	1.238075	0	0	0	0	ThoughtProbe	0.157660	0.534954	1	44	44
67.564270	1.332897	city	1	1	1.179476	1.179476	0	1	0	0	CorrectCommission	0.451458	0.533343	1	0	4.397500e+01
68.883835	1.306236	city	3	1	1.076001	1.076001	0	1	0	0	CorrectCommission	0.970258	0.531584	1	0	4.395000e+01
70.196724	1.319536	city	8	1	1.060974	1.060974	0	1	0	0	CorrectCommission	1.045597	0.529998	1	0	4.392500e+01
71.496292	1.279608	mountain	5	0	0.000000	1.190109	1	0	0	0	CorrectOmission	0.398151	0.529093	1	0	4.390000e+01
72.782486	1.292773	city	4	1	1.277396	1.277396	0	1	0	0	CorrectCommission	0.039487	0.529458	1	0	4.387500e+01
74.081970	1.306203	city	10	1	1.136830	1.136830	0	1	0	0	CorrectCommission	0.665277	0.531575	1	0	4.385000e+01
75.381615	1.293078	city	6	1	1.327860	1.327860	0	1	0	0	CorrectCommission	0.292499	0.535649	1	0	4.382500e+01
76.674614	1.292924	city	8	1	1.219410	1.219410	0	1	0	0	CorrectCommission	0.251242	0.541555	1	0	4.380000e+01
77.980850	1.319545	city	7	1	1.232593	1.232593	0	1	0	0	CorrectCommission	0.185142	0.548787	1	0	4.377500e+01
79.280319	1.279403	city	9	1	1.352162	1.352162	0	1	0	0	CorrectCommission	0.414344	0.556528	1	0	4.375000e+01
80.619881	1.399720	city	5	1	1.061704	1.061704	0	1	0	0	CorrectCommission	1.041938	0.563766	1	0	4.372500e+01
81.966194	1.292906	mountain	1	1	1.112826	1.112826	0	0	1	0	CommissionError	0.785626	0.569470	1	0	4.370000e+01
83.265762	1.306233	city	5	1	0.968498	0.968498	0	1	0	0	CorrectCommission	1.509253	0.572792	1	0	4.367500e+01
84.558617	1.279476	city	10	1	1.241894	1.241894	0	1	0	0	CorrectCommission	0.138510	0.573182	1	0	4.365000e+01
85.884842	1.372967	city	4	1	1.236094	1.236094	0	1	0	0	CorrectCommission	0.167589	0.570508	1	0	4.362500e+01
87.211128	1.279611	city	7	1	1.499062	1.499062	0	1	0	0	CorrectCommission	1.150863	0.565038	1	0	4.360000e+01
88.510704	1.319538	city	3	1	1.248866	1.248866	0	1	0	0	CorrectCommission	0.103554	0.557377	1	0	4.357500e+01
89.816933	1.292926	city	10	1	1.069868	1.069868	0	1	0	0	CorrectCommission	1.001005	0.548404	1	0	4.355000e+01
91.123093	1.319383	mountain	4	0	0.000000	1.271029	1	0	0	0	CorrectOmission	0.007563	0.539089	1	0	4.352500e+01
92.442642	1.319726	city	5	1	1.447949	1.447949	0	1	0	0	CorrectCommission	0.894597	0.530403	1	0	4.350000e+01
93.762299	1.319588	city	4	1	1.196231	1.196231	0	1	0	0	CorrectCommission	0.367453	0.523163	1	0	4.347500e+01
95.095207	1.346215	city	6	1	1.303649	1.303649	0	1	0	0	CorrectCommission	0.171112	0.518030	1	0	4.345000e+01
96.441429	1.346230	city	8	1	1.124418	1.124418	0	1	0	0	CorrectCommission	0.727508	0.515390	1	0	4.342500e+01
97.800987	1.372886	city	1	1	1.208755	1.208755	0	1	0	0	CorrectCommission	0.304662	0.515389	1	0	4.340000e+01
99.127205	1.279560	city	9	1	1.086965	1.086965	0	1	0	0	CorrectCommission	0.915286	0.517964	1	0	4.337500e+01
100.420105	1.306241	city	2	1	1.287568	1.287568	0	1	0	0	CorrectCommission	0.090487	0.522887	1	0	4.335000e+01
101.726349	1.306249	city	6	1	1.287752	1.287752	0	1	0	0	CorrectCommission	0.091411	0.529886	1	0	4.332500e+01
103.052589	1.346232	city	9	1	1.197303	1.197303	0	1	0	0	CorrectCommission	0.362077	0.538638	1	0	4.330000e+01
104.378754	1.306095	city	5	1	0.976201	0.976201	0	1	0	0	CorrectCommission	1.470630	0.548853	1	0	4.327500e+01
105.671646	1.279692	city	7	1	1.078212	1.078212	0	1	0	0	CorrectCommission	0.959175	0.560257	1	0	4.325000e+01
106.964622	1.306260	city	8	1	1.189198	1.189198	0	1	0	0	CorrectCommission	0.402714	0.572611	1	0	4.322500e+01
108.264206	1.292907	city	10	1	1.221560	1.221560	0	1	0	0	CorrectCommission	0.240462	0.585633	1	0	4.320000e+01
109.577080	1.332840	city	4	1	1.319998	1.319998	0	1	0	0	CorrectCommission	0.253081	0.598943	1	0	4.317500e+01
110.903305	1.319613	city	5	1	1.203069	1.203069	0	1	0	0	CorrectCommission	0.333170	0.611998	1	0	4.315000e+01
112.209564	1.292893	city	8	1	1.377693	1.377693	0	1	0	0	CorrectCommission	0.542353	0.624141	1	0	4.312500e+01
113.529129	1.346248	city	7	1	1.469502	1.469502	0	1	0	0	CorrectCommission	1.002659	0.634713	1	0	4.310000e+01
114.868690	1.332872	city	8	1	1.165114	1.165114	0	1	0	0	CorrectCommission	0.523470	0.643168	1	0	4.307500e+01
116.188263	1.306262	city	10	1	1.063044	1.063044	0	1	0	0	CorrectCommission	1.035222	0.649287	1	0	4.305000e+01
117.501175	1.319561	city	9	1	1.076485	1.076485	0	1	0	0	CorrectCommission	0.967831	0.653254	1	0	4.302500e+01
121.719696	7.117485	break	0	1	1.155517	1.155517	0	0	0	0	ThoughtProbe	0.571582	0.655760	1	43	43
125.958298	1.359725	city	3	1	1.559380	1.559380	0	1	0	0	CorrectCommission	1.453285	0.657996	1	0	4.280000e+01
127.291245	1.306163	city	4	1	1.297384	1.297384	0	1	0	0	CorrectCommission	0.139704	0.661417	1	0	4.260000e+01
128.590820	1.292992	city	9	1	1.446106	1.446106	0	1	0	0	CorrectCommission	0.885354	0.667565	0	0	4.240000e+01
129.923721	1.372803	city	7	1	1.304142	1.304142	0	1	0	0	CorrectCommission	0.173584	0.677662	0	0	4.220000e+01
131.269943	1.319635	mountain	5	0	0.000000	1.298447	1	0	0	0	CorrectOmission	0.145031	0.692352	0	0	42
132.576202	1.292907	city	7	1	1.341829	1.341829	0	1	0	0	CorrectCommission	0.362540	0.711447	0	0	4.180000e+01
133.869095	1.292875	city	9	1	1.347098	1.347098	0	1	0	0	CorrectCommission	0.388956	0.733826	0	0	4.160000e+01
135.168671	1.306271	city	4	1	1.186194	1.186194	0	1	0	0	CorrectCommission	0.417776	0.757535	0	0	4.140000e+01
136.468262	1.292907	city	8	1	1.112811	1.112811	0	1	0	0	CorrectCommission	0.785700	0.780031	0	0	4.120000e+01
137.781158	1.332900	city	5	1	1.079994	1.079994	0	1	0	0	CorrectCommission	0.950239	0.798568	0	0	41
139.120728	1.346219	city	4	1	0.912557	0.912557	0	1	0	0	CorrectCommission	1.789723	0.810612	0	0	4.080000e+01
140.480270	1.372880	mountain	2	1	0.679183	0.679183	0	0	1	0	CommissionError	2.959804	0.814253	0	0	4.060000e+01
141.813110	1.292800	city	3	1	1.329386	1.329386	0	1	0	0	CorrectCommission	0.300151	0.808476	0	0	4.040000e+01
143.112625	1.306216	city	10	1	1.252781	1.252781	0	1	0	0	CorrectCommission	0.083926	0.793359	0	0	4.020000e+01
144.405594	1.279713	city	4	1	1.344766	1.344766	0	1	0	0	CorrectCommission	0.377265	0.769906	0	0	40
145.725281	1.359658	city	5	1	1.343004	1.343004	0	1	0	0	CorrectCommission	0.368428	0.739919	0	0	3.980000e+01
147.044830	1.279447	city	7	1	1.752061	1.752061	0	1	0	0	CorrectCommission	2.419338	0.705716	0	0	3.960000e+01
148.331009	1.292909	city	9	1	1.312235	1.312235	0	1	0	0	CorrectCommission	0.214163	0.669786	0	0	3.940000e+01
149.644150	1.333372	city	8	1	1.262138	1.262138	0	1	0	0	CorrectCommission	0.037015	0.634614	1	0	3.920000e+01
150.977051	1.332441	city	4	1	1.168378	1.168378	0	1	0	0	CorrectCommission	0.507101	0.602327	1	0	39
152.289719	1.292900	city	10	1	1.118343	1.118343	0	1	0	0	CorrectCommission	0.757965	0.574529	1	0	3.880000e+01
153.589279	1.306228	city	7	1	1.240441	1.240441	0	1	0	0	CorrectCommission	0.145795	0.552258	1	0	3.860000e+01
154.882111	1.279431	city	6	0	0.000000	1.280507	0	0	0	1	OmissionError	0.055082	0.535961	1	0	3.840000e+01
156.201691	1.359722	mountain	8	0	0.000000	1.299733	1	0	0	0	CorrectOmission	0.151479	0.525562	1	0	3.820000e+01
157.528000	1.292901	city	3	1	1.359315	1.359315	0	1	0	0	CorrectCommission	0.450209	0.520595	1	0	38
158.840897	1.332874	city	10	1	1.520447	1.520447	0	1	0	0	CorrectCommission	1.258085	0.520351	1	0	3.780000e+01
160.153748	1.292843	city	5	1	1.468261	1.468261	0	1	0	0	CorrectCommission	0.996435	0.524021	1	0	3.760000e+01
161.486649	1.372959	city	1	1	1.354168	1.354168	0	1	0	0	CorrectCommission	0.424404	0.530817	1	0	3.740000e+01
162.812927	1.279589	city	5	1	1.193682	1.193682	0	1	0	0	CorrectCommission	0.380233	0.539996	1	0	3.720000e+01
164.099075	1.292728	city	2	1	1.264553	1.264553	0	1	0	0	CorrectCommission	0.024905	0.550838	1	0	37
165.391953	1.293019	city	10	1	1.183383	1.183383	0	1	0	0	CorrectCommission	0.431870	0.562636	1	0	3.680000e+01
166.698288	1.319638	city	5	1	1.207272	1.207272	0	1	0	0	CorrectCommission	0.312097	0.574678	1	0	3.660000e+01
168.044525	1.372859	city	8	1	1.149355	1.149355	0	1	0	0	CorrectCommission	0.602478	0.586297	1	0	3.640000e+01
169.384048	1.306160	city	9	1	1.128174	1.128174	0	1	0	0	CorrectCommission	0.708676	0.596894	1	0	3.620000e+01
170.696960	1.319665	city	6	1	0.985186	0.985186	0	1	0	0	CorrectCommission	1.425582	0.606115	1	0	36
171.996567	1.279575	city	8	1	1.154218	1.154218	0	1	0	0	CorrectCommission	0.578095	0.613872	1	0	3.580000e+01
173.289474	1.306235	city	3	1	1.092471	1.092471	0	1	0	0	CorrectCommission	0.887681	0.620421	1	0	3.560000e+01
174.602371	1.319559	city	2	1	1.248282	1.248282	0	1	0	0	CorrectCommission	0.106484	0.626334	1	0	3.540000e+01
175.935272	1.346233	city	5	1	1.072117	1.072117	0	1	0	0	CorrectCommission	0.989731	0.632397	1	0	3.520000e+01
180.233856	7.250949	break	0	0	0.000000	1.198274	0	0	0	0	ThoughtProbe	0.357213	0.639492	1	35	35
184.512436	1.306204	city	2	1	1.395311	1.395311	0	1	0	0	CorrectCommission	0.630685	0.648428	1	0	3.547059e+01
185.818665	1.306262	city	3	1	1.431790	1.431790	0	1	0	0	CorrectCommission	0.813581	0.659723	1	0	3.594118e+01
187.138245	1.332897	city	10	1	1.267605	1.267605	0	1	0	0	CorrectCommission	0.009603	0.673483	0	0	3.641176e+01
188.457733	1.306062	city	1	1	1.383942	1.383942	0	1	0	0	CorrectCommission	0.573683	0.689376	0	0	3.688235e+01
189.803955	1.386396	city	3	1	1.316020	1.316020	0	1	0	0	CorrectCommission	0.233139	0.706608	0	0	3.735294e+01
191.170258	1.346200	city	8	1	1.118615	1.118615	0	1	0	0	CorrectCommission	0.756602	0.724076	0	0	3.782353e+01
192.496475	1.306235	mountain	9	0	0.000000	0.992424	1	0	0	0	CorrectOmission	1.389290	0.740547	0	0	3.829412e+01
193.809372	1.319569	city	10	1	0.967104	0.967104	0	1	0	0	CorrectCommission	1.516241	0.754863	0	0	3.876471e+01
195.115616	1.292903	city	4	1	1.072309	1.072309	0	1	0	0	CorrectCommission	0.988771	0.766147	0	0	3.923529e+01
196.415192	1.306261	city	9	1	1.181558	1.181558	0	1	0	0	CorrectCommission	0.441019	0.773943	0	0	3.970588e+01
197.708115	1.279591	city	4	1	1.211657	1.211657	0	1	0	0	CorrectCommission	0.290112	0.778243	0	0	4.017647e+01
198.987686	1.279544	city	10	1	1.104810	1.104810	0	1	0	0	CorrectCommission	0.825819	0.779472	0	0	4.064706e+01
200.280563	1.306194	city	4	1	1.108311	1.108311	0	1	0	0	CorrectCommission	0.808263	0.778337	0	0	4.111765e+01
201.606796	1.346292	city	3	1	0.981676	0.981676	0	1	0	0	CorrectCommission	1.443182	0.775734	0	0	4.158824e+01
202.939682	1.319459	mountain	8	1	1.038036	1.038036	0	0	1	0	CommissionError	1.160606	0.772511	0	0	4.205882e+01
204.272568	1.346312	city	5	1	1.325438	1.325438	0	1	0	0	CorrectCommission	0.280359	0.769372	0	0	4.252941e+01
205.605484	1.319544	city	4	1	1.372535	1.372535	0	1	0	0	CorrectCommission	0.516489	0.766733	0	0	43
206.964996	1.399458	city	3	1	1.278546	1.278546	0	1	0	0	CorrectCommission	0.045253	0.764655	0	0	4.347059e+01
208.317886	1.306331	city	8	1	1.133918	1.133918	0	1	0	0	CorrectCommission	0.679877	0.762919	0	0	4.394118e+01
209.657501	1.372889	city	2	1	1.171001	1.171001	0	1	0	0	CorrectCommission	0.493954	0.761105	0	0	4.441176e+01
210.990402	1.292925	city	9	1	1.021704	1.021704	0	1	0	0	CorrectCommission	1.242489	0.758811	0	0	4.488235e+01
212.283325	1.292912	city	7	1	1.011560	1.011560	0	1	0	0	CorrectCommission	1.293347	0.755828	0	0	4.535294e+01
213.596222	1.332889	city	6	1	0.979694	0.979694	0	1	0	0	CorrectCommission	1.453115	0.752297	0	0	4.582353e+01
214.902466	1.279585	city	8	1	1.025014	1.025014	0	1	0	0	CorrectCommission	1.225895	0.748775	0	0	4.629412e+01
216.195374	1.306237	city	3	1	1.238513	1.238513	0	1	0	0	CorrectCommission	0.155463	0.746163	0	0	4.676471e+01
217.501617	1.306266	city	1	1	1.196811	1.196811	0	1	0	0	CorrectCommission	0.364549	0.745511	0	0	4.723529e+01
218.814514	1.319510	city	5	1	1.150199	1.150199	0	1	0	0	CorrectCommission	0.598245	0.747763	0	0	4.770588e+01
220.134048	1.319568	city	2	1	1.227977	1.227977	0	1	0	0	CorrectCommission	0.208288	0.753565	0	0	4.817647e+01
221.433548	1.279436	city	4	1	1.318133	1.318133	0	1	0	0	CorrectCommission	0.243734	0.763065	0	0	4.864706e+01
222.746460	1.346374	city	2	1	1.331266	1.331266	0	1	0	0	CorrectCommission	0.309579	0.775898	0	0	4.911765e+01
224.086014	1.332736	city	9	1	1.542178	1.542178	0	1	0	0	CorrectCommission	1.367038	0.791281	0	0	4.958824e+01
225.425583	1.346395	city	5	1	1.061511	1.061511	0	1	0	0	CorrectCommission	1.042909	0.808181	0	0	5.005882e+01
226.765213	1.332875	city	4	1	0.927402	0.927402	0	1	0	0	CorrectCommission	1.715296	0.825610	0	0	5.052941e+01
230.290634	5.717963	break	0	0	0.000000	1.180983	0	0	0	0	ThoughtProbe	0.443904	0.842718	0	51	51
233.816086	1.332940	city	5	1	1.482391	1.482391	0	1	0	0	CorrectCommission	1.067280	0.859052	0	0	5.115217e+01
235.155746	1.346373	city	6	1	1.491763	1.491763	0	1	0	0	CorrectCommission	1.114270	0.874464	0	0	5.130435e+01
236.482040	1.306215	city	5	1	1.132785	1.132785	0	1	0	0	CorrectCommission	0.685556	0.889134	0	0	5.145652e+01
237.814896	1.359505	city	2	1	1.058957	1.058957	0	1	0	0	CorrectCommission	1.055714	0.903405	0	0	5.160870e+01
239.161118	1.332938	city	10	1	1.231042	1.231042	0	1	0	0	CorrectCommission	0.192920	0.917563	0	0	5.176087e+01
240.467361	1.279562	city	9	1	1.379434	1.379434	0	1	0	0	CorrectCommission	0.551079	0.931799	0	0	5.191304e+01
241.760239	1.306199	city	1	1	1.079482	1.079482	0	1	0	0	CorrectCommission	0.952806	0.946083	0	0	5.206522e+01
243.059830	1.292968	city	10	1	1.352173	1.352173	0	1	0	0	CorrectCommission	0.414399	0.960243	0	0	5.221739e+01
244.366089	1.319546	city	5	1	1.686747	1.686747	0	1	0	0	CorrectCommission	2.091870	0.974079	0	0	5.236957e+01
245.685638	1.319562	mountain	9	0	0.000000	1.627388	1	0	0	0	CorrectOmission	1.794257	0.987398	0	0	5.252174e+01
246.991898	1.292951	mountain	3	0	0.000000	1.432540	1	0	0	0	CorrectOmission	0.817341	1.000231	0	0	5.267391e+01
248.291306	1.305876	city	1	1	1.360650	1.360650	0	1	0	0	CorrectCommission	0.456904	1.012755	0	0	5.282609e+01
249.610855	1.333215	city	5	1	1.670164	1.670164	0	1	0	0	CorrectCommission	2.008726	1.025249	0	0	5.297826e+01
250.943909	1.332898	city	2	1	1.306303	1.306303	0	1	0	0	CorrectCommission	0.184419	1.037906	0	0	5.313043e+01
252.283401	1.346067	city	5	1	1.385653	1.385653	0	1	0	0	CorrectCommission	0.582261	1.050794	0	0	5.328261e+01
253.602966	1.293085	mountain	7	0	0.000000	1.397773	1	0	0	0	CorrectOmission	0.643026	1.063570	0	0	5.343478e+01
254.889297	1.279583	city	1	1	1.472687	1.472687	0	1	0	0	CorrectCommission	1.018626	1.075479	0	0	5.358696e+01
256.182190	1.306195	city	4	1	1.740419	1.740419	0	1	0	0	CorrectCommission	2.360970	1.085381	0	0	5.373913e+01
257.508423	1.346264	city	5	1	1.211110	1.211110	0	1	0	0	CorrectCommission	0.292857	1.091875	0	0	5.389130e+01
258.841248	1.319409	city	9	1	1.104417	1.104417	0	1	0	0	CorrectCommission	0.827786	1.093618	0	0	5.404348e+01
260.180817	1.359710	city	8	1	1.104829	1.104829	0	1	0	0	CorrectCommission	0.825720	1.089454	0	0	5.419565e+01
261.527069	1.332773	city	1	1	1.796329	1.796329	0	1	0	0	CorrectCommission	2.641288	1.078739	0	0	5.434783e+01
262.859863	1.332849	city	5	1	1.765985	1.765985	0	1	0	0	CorrectCommission	2.489151	1.061431	0	0	5.450000e+01
264.206146	1.359714	city	4	1	1.384013	1.384013	0	1	0	0	CorrectCommission	0.574039	1.038177	0	0	5.465217e+01
265.552399	1.332761	city	7	1	1.392276	1.392276	0	1	0	0	CorrectCommission	0.615466	1.010234	0	0	5.480435e+01
266.918579	1.399608	city	4	1	1.317037	1.317037	0	1	0	0	CorrectCommission	0.238238	0.979192	0	0	5.495652e+01
268.298126	1.359508	city	5	1	1.190977	1.190977	0	1	0	0	CorrectCommission	0.393796	0.946807	0	0	5.510870e+01
269.664368	1.372978	mountain	10	1	1.029577	1.029577	0	0	1	0	CommissionError	1.203014	0.914737	0	0	5.526087e+01
271.010651	1.319582	city	10	1	1.342392	1.342392	0	1	0	0	CorrectCommission	0.365359	0.884341	0	0	5.541304e+01
272.343536	1.346201	city	7	1	1.760969	1.760969	0	1	0	0	CorrectCommission	2.464001	0.856624	0	0	5.556522e+01
273.716400	1.399510	city	5	1	1.330522	1.330522	0	1	0	0	CorrectCommission	0.305845	0.832084	0	0	5.571739e+01
275.089294	1.346273	city	3	1	1.221671	1.221671	0	1	0	0	CorrectCommission	0.239904	0.810896	0	0	5.586957e+01
276.415558	1.306248	city	4	1	1.294052	1.294052	0	1	0	0	CorrectCommission	0.122995	0.792841	0	0	5.602174e+01
277.721802	1.306213	city	7	1	1.643055	1.643055	0	1	0	0	CorrectCommission	1.872810	0.777432	0	0	5.617391e+01
279.068024	1.386234	city	10	1	1.136390	1.136390	0	1	0	0	CorrectCommission	0.667484	0.763891	0	0	5.632609e+01
280.427582	1.332922	city	1	1	1.319090	1.319090	0	1	0	0	CorrectCommission	0.248531	0.751385	0	0	5.647826e+01
281.760468	1.332860	city	10	1	1.216096	1.216096	0	1	0	0	CorrectCommission	0.267857	0.738995	0	0	5.663043e+01
283.073364	1.292882	city	2	1	1.513204	1.513204	0	1	0	0	CorrectCommission	1.221769	0.725832	0	0	5.678261e+01
284.386261	1.332925	city	7	1	1.468689	1.468689	0	1	0	0	CorrectCommission	0.998580	0.711112	0	0	5.693478e+01
285.719147	1.332869	city	1	1	1.424439	1.424439	0	1	0	0	CorrectCommission	0.776722	0.694259	0	0	5.708696e+01
287.025391	1.279600	city	2	1	1.379357	1.379357	0	1	0	0	CorrectCommission	0.550692	0.674986	0	0	5.723913e+01
288.331635	1.332869	city	3	1	1.511650	1.511650	0	1	0	0	CorrectCommission	1.213976	0.653282	1	0	5.739130e+01
289.671173	1.346250	city	4	1	1.425652	1.425652	0	1	0	0	CorrectCommission	0.782803	0.629414	1	0	5.754348e+01
290.997345	1.306074	city	2	1	1.237795	1.237795	0	1	0	0	CorrectCommission	0.159061	0.603900	1	0	5.769565e+01
292.310242	1.319714	city	1	1	1.218679	1.218679	0	1	0	0	CorrectCommission	0.254906	0.577461	1	0	5.784783e+01
295.262604	4.585002	break	0	0	0.000000	1.331057	0	0	0	0	ThoughtProbe	0.308528	0.550953	1	58	58
298.194946	1.279728	mountain	3	0	0.000000	1.456556	1	0	0	0	CorrectOmission	0.937748	0.525275	1	0	5.805000e+01
299.487946	1.306239	city	4	1	1.476803	1.476803	0	1	0	0	CorrectCommission	1.039262	0.501313	1	0	5.810000e+01
300.840851	1.399557	city	1	1	1.273425	1.273425	0	1	0	0	CorrectCommission	0.019577	0.479883	1	0	5.815000e+01
302.187073	1.292890	city	9	1	1.220295	1.220295	0	1	0	0	CorrectCommission	0.246805	0.461692	1	0	5.820000e+01
303.506622	1.346238	city	6	1	1.151221	1.151221	0	1	0	0	CorrectCommission	0.593122	0.447237	1	0	5.825000e+01
304.839508	1.319549	city	9	1	1.254005	1.254005	0	1	0	0	CorrectCommission	0.077788	0.436738	1	0	5.830000e+01
306.172363	1.346163	city	7	1	1.394258	1.394258	0	1	0	0	CorrectCommission	0.625406	0.430183	1	0	5.835000e+01
307.511932	1.332969	city	6	1	1.251266	1.251266	0	1	0	0	CorrectCommission	0.091524	0.427262	1	0	5.840000e+01
308.831543	1.306249	city	4	1	1.234205	1.234205	0	1	0	0	CorrectCommission	0.177060	0.427463	1	0	5.845000e+01
310.124451	1.279547	city	8	1	1.206888	1.206888	0	1	0	0	CorrectCommission	0.314023	0.430079	1	0	5.850000e+01
311.424011	1.319572	city	10	1	1.140284	1.140284	0	1	0	0	CorrectCommission	0.647959	0.434400	1	0	5.855000e+01
312.776917	1.386263	city	1	1	1.165996	1.165996	0	1	0	0	CorrectCommission	0.519043	0.439834	1	0	5.860000e+01
314.116425	1.292705	city	6	1	1.458094	1.458094	0	1	0	0	CorrectCommission	0.945461	0.446032	1	0	5.865000e+01
315.429291	1.333072	mountain	6	0	0.000000	1.372783	1	0	0	0	CorrectOmission	0.517735	0.452943	1	0	5.870000e+01
316.768951	1.346214	city	4	1	1.217469	1.217469	0	1	0	0	CorrectCommission	0.260974	0.460866	1	0	5.875000e+01
318.101715	1.319313	city	3	1	1.299554	1.299554	0	1	0	0	CorrectCommission	0.150582	0.470370	1	0	5.880000e+01
319.421204	1.319653	city	2	1	1.354364	1.354364	0	1	0	0	CorrectCommission	0.425383	0.482188	1	0	5.885000e+01
320.720886	1.279748	city	3	1	1.447029	1.447029	0	1	0	0	CorrectCommission	0.889985	0.496993	1	0	5.890000e+01
322.033875	1.346207	city	5	1	1.380384	1.380384	0	1	0	0	CorrectCommission	0.555844	0.515241	1	0	5.895000e+01
323.386749	1.359572	city	9	1	1.284477	1.284477	0	1	0	0	CorrectCommission	0.074991	0.537011	1	0	59
324.732910	1.332716	city	3	1	1.246703	1.246703	0	1	0	0	CorrectCommission	0.114400	0.561844	1	0	5.905000e+01
326.065796	1.333068	city	7	1	1.248353	1.248353	0	1	0	0	CorrectCommission	0.106129	0.588708	1	0	5.910000e+01
327.398743	1.332834	city	8	1	1.028956	1.028956	0	1	0	0	CorrectCommission	1.206128	0.616068	1	0	5.915000e+01
328.718292	1.306280	city	6	1	1.179865	1.179865	0	1	0	0	CorrectCommission	0.449508	0.642023	1	0	5.920000e+01
330.057892	1.372905	city	4	1	1.154448	1.154448	0	1	0	0	CorrectCommission	0.576945	0.664615	0	0	5.925000e+01
331.397461	1.306228	city	6	1	1.420611	1.420611	0	1	0	0	CorrectCommission	0.757529	0.682061	0	0	5.930000e+01
332.737030	1.372888	mountain	2	0	0.000000	1.570098	1	0	0	0	CorrectOmission	1.507022	0.693037	0	0	5.935000e+01
334.069824	1.292731	city	2	1	1.581386	1.581386	0	1	0	0	CorrectCommission	1.563616	0.696854	0	0	5.940000e+01
335.409302	1.386189	city	8	1	1.432951	1.432951	0	1	0	0	CorrectCommission	0.819399	0.693612	0	0	5.945000e+01
336.748932	1.293090	city	5	1	1.372986	1.372986	0	1	0	0	CorrectCommission	0.518751	0.684148	0	0	5.950000e+01
338.055267	1.319558	city	10	1	1.379474	1.379474	0	1	0	0	CorrectCommission	0.551279	0.669893	0	0	5.955000e+01
339.374817	1.319596	city	6	1	1.338183	1.338183	0	1	0	0	CorrectCommission	0.344258	0.652657	1	0	5.960000e+01
340.714417	1.359547	city	10	1	1.180818	1.180818	0	1	0	0	CorrectCommission	0.444732	0.634384	1	0	5.965000e+01
342.053955	1.319562	city	1	1	1.189879	1.189879	0	1	0	0	CorrectCommission	0.399303	0.616925	1	0	5.970000e+01
343.380188	1.332898	city	8	1	1.207453	1.207453	0	1	0	0	CorrectCommission	0.311192	0.601846	1	0	5.975000e+01
344.699738	1.306217	city	3	1	1.032782	1.032782	0	1	0	0	CorrectCommission	1.186946	0.590326	1	0	5.980000e+01
346.012573	1.319444	city	6	1	1.200636	1.200636	0	1	0	0	CorrectCommission	0.345367	0.583037	1	0	5.985000e+01
347.378815	1.413008	city	7	0	0.000000	1.145427	0	0	0	1	OmissionError	0.622174	0.580221	1	0	5.990000e+01
348.745087	1.319555	city	4	1	1.086091	1.086091	0	1	0	0	CorrectCommission	0.919671	0.581644	1	0	5.995000e+01
352.117279	5.424853	break	0	1	1.241565	1.241565	0	0	0	0	ThoughtProbe	0.140162	0.586620	1	60	60
355.476196	1.292971	mountain	1	0	0.000000	1.242646	1	0	0	0	CorrectOmission	0.134740	0.594154	1	0	5.985294e+01
356.802460	1.359528	city	10	1	1.186494	1.186494	0	1	0	0	CorrectCommission	0.416274	0.603009	1	0	5.970588e+01
358.161987	1.359559	city	5	1	1.170267	1.170267	0	1	0	0	CorrectCommission	0.497633	0.611877	1	0	5.955882e+01
359.494812	1.306058	city	9	1	1.362374	1.362374	0	1	0	0	CorrectCommission	0.465546	0.619566	1	0	5.941176e+01
360.814362	1.333069	city	4	1	1.482393	1.482393	0	1	0	0	CorrectCommission	1.067288	0.625167	1	0	5.926471e+01
362.147339	1.332900	city	7	1	1.652595	1.652595	0	1	0	0	CorrectCommission	1.920640	0.628233	1	0	5.911765e+01
363.526886	1.426201	city	6	1	1.233689	1.233689	0	1	0	0	CorrectCommission	0.179649	0.628827	1	0	5.897059e+01
364.886475	1.292927	city	10	1	0.959168	0.959168	0	1	0	0	CorrectCommission	1.556028	0.627546	1	0	5.882353e+01
366.199371	1.332869	city	4	1	1.250050	1.250050	0	1	0	0	CorrectCommission	0.097621	0.625251	1	0	5.867647e+01
367.532166	1.332765	city	7	1	1.311502	1.311502	0	1	0	0	CorrectCommission	0.210487	0.622958	1	0	5.852941e+01
368.891724	1.386323	city	2	1	1.303472	1.303472	0	1	0	0	CorrectCommission	0.170223	0.621507	1	0	5.838235e+01
370.244659	1.319580	city	4	1	1.252566	1.252566	0	1	0	0	CorrectCommission	0.085004	0.621357	1	0	5.823529e+01
371.590881	1.372871	city	6	1	1.196113	1.196113	0	1	0	0	CorrectCommission	0.368048	0.622456	1	0	5.808824e+01
372.943787	1.332916	mountain	5	0	0.000000	1.404527	1	0	0	0	CorrectOmission	0.676887	0.624255	1	0	5.794118e+01
374.276672	1.332869	city	4	1	1.549867	1.549867	0	1	0	0	CorrectCommission	1.405590	0.625823	1	0	5.779412e+01
375.629578	1.372902	city	6	1	1.304194	1.304194	0	1	0	0	CorrectCommission	0.173847	0.626083	1	0	5.764706e+01
376.975708	1.319405	city	10	1	1.025427	1.025427	0	1	0	0	CorrectCommission	1.223823	0.624070	1	0	5.750000e+01
378.288605	1.306377	city	7	1	1.648049	1.648049	0	1	0	0	CorrectCommission	1.897849	0.619082	1	0	5.735294e+01
379.674896	1.466209	city	8	1	1.280028	1.280028	0	1	0	0	CorrectCommission	0.052682	0.610880	1	0	5.720588e+01
381.047791	1.279579	city	3	1	1.268730	1.268730	0	1	0	0	CorrectCommission	0.003963	0.599785	1	0	5.705882e+01
382.333954	1.292725	city	4	1	1.245373	1.245373	0	1	0	0	CorrectCommission	0.121070	0.586522	1	0	5.691176e+01
383.633514	1.306395	city	8	1	1.075662	1.075662	0	1	0	0	CorrectCommission	0.971959	0.572182	1	0	5.676471e+01
384.959839	1.346229	city	1	1	1.104788	1.104788	0	1	0	0	CorrectCommission	0.825926	0.558030	1	0	5.661765e+01
386.292725	1.319565	city	10	1	1.200212	1.200212	0	1	0	0	CorrectCommission	0.347493	0.545397	1	0	5.647059e+01
387.638885	1.372781	city	2	1	1.117211	1.117211	0	1	0	0	CorrectCommission	0.763641	0.535489	1	0	5.632353e+01
388.998444	1.346323	city	5	1	1.164408	1.164408	0	1	0	0	CorrectCommission	0.527006	0.529246	1	0	5.617647e+01
390.351410	1.359578	city	4	1	1.230219	1.230219	0	1	0	0	CorrectCommission	0.197048	0.527261	1	0	5.602941e+01
391.697632	1.332886	city	7	1	1.248227	1.248227	0	1	0	0	CorrectCommission	0.106761	0.529673	1	0	5.588235e+01
393.030518	1.332901	city	9	1	1.317883	1.317883	0	1	0	0	CorrectCommission	0.242479	0.536201	1	0	5.573529e+01
394.376740	1.359555	city	2	1	1.134200	1.134200	0	1	0	0	CorrectCommission	0.678462	0.546119	1	0	5.558824e+01
395.703156	1.293238	city	1	1	1.381530	1.381530	0	1	0	0	CorrectCommission	0.561587	0.558424	1	0	5.544118e+01
397.062683	1.425854	city	8	1	1.224114	1.224114	0	1	0	0	CorrectCommission	0.227658	0.571936	1	0	5.529412e+01
398.435394	1.319572	city	10	1	1.037644	1.037644	0	1	0	0	CorrectCommission	1.162573	0.585460	1	0	5.514706e+01
402.227417	6.264432	break	0	1	1.153986	1.153986	0	0	0	0	ThoughtProbe	0.579262	0.597931	1	55	55
406.026184	1.333115	city	3	1	1.601959	1.601959	0	1	0	0	CorrectCommission	1.666763	0.608585	1	0	5.476087e+01
407.359161	1.332846	city	4	1	1.264492	1.264492	0	1	0	0	CorrectCommission	0.025209	0.617023	1	0	5.452174e+01
408.672028	1.292859	city	10	0	0.000000	1.185045	0	0	0	1	OmissionError	0.423536	0.623254	1	0	5.428261e+01
410.051575	1.466231	city	3	1	1.287149	1.287149	0	1	0	0	CorrectCommission	0.088388	0.627695	1	0	5.404348e+01
411.431122	1.292918	city	6	1	1.494337	1.494337	0	1	0	0	CorrectCommission	1.127172	0.631158	1	0	5.380435e+01
412.757355	1.359549	city	3	1	1.124097	1.124097	0	1	0	0	CorrectCommission	0.729117	0.634783	1	0	5.356522e+01
414.116913	1.359556	city	10	1	1.103634	1.103634	0	1	0	0	CorrectCommission	0.831714	0.640057	1	0	5.332609e+01
415.443146	1.292883	mountain	5	0	0.000000	1.321097	1	0	0	0	CorrectOmission	0.258592	0.648721	1	0	5.308696e+01
416.736053	1.292929	city	6	1	1.494464	1.494464	0	1	0	0	CorrectCommission	1.127810	0.662697	1	0	5.284783e+01
418.028870	1.292748	city	1	1	1.341711	1.341711	0	1	0	0	CorrectCommission	0.361948	0.683877	0	0	5.260870e+01
419.341797	1.333097	mountain	5	0	0.000000	1.373455	1	0	0	0	CorrectOmission	0.521103	0.713992	0	0	5.236957e+01
420.674774	1.332852	city	7	1	1.405345	1.405345	0	1	0	0	CorrectCommission	0.680991	0.754349	0	0	5.213043e+01
422.034302	1.386212	city	1	1	1.253031	1.253031	0	1	0	0	CorrectCommission	0.082672	0.805586	0	0	5.189130e+01
423.407196	1.359555	city	10	1	1.212364	1.212364	0	1	0	0	CorrectCommission	0.286567	0.867478	0	0	5.165217e+01
424.733337	1.292723	city	8	1	1.355850	1.355850	0	1	0	0	CorrectCommission	0.432837	0.938766	0	0	5.141304e+01
426.052917	1.346410	city	9	1	1.656653	1.656653	0	1	0	0	CorrectCommission	1.940987	1.017155	0	0	5.117391e+01
427.372559	1.292880	mountain	5	0	0.000000	1.572256	1	0	0	0	CorrectOmission	1.517843	1.099390	0	0	5.093478e+01
428.665375	1.292760	city	3	1	1.334663	1.334663	0	1	0	0	CorrectCommission	0.326610	1.181576	0	0	5.069565e+01
429.958282	1.293059	city	10	1	1.175876	1.175876	0	1	0	0	CorrectCommission	0.469510	1.259571	0	0	5.045652e+01
431.251282	1.292927	city	2	1	1.423317	1.423317	0	1	0	0	CorrectCommission	0.771100	1.329446	0	0	5.021739e+01
432.604156	1.412850	city	1	1	1.944268	1.944268	0	1	0	0	CorrectCommission	3.383018	1.388035	0	0	4.997826e+01
433.983704	1.346243	city	2	1	1.612046	1.612046	0	1	0	0	CorrectCommission	1.717337	1.433394	0	0	4.973913e+01
435.309937	1.306215	city	4	1	1.749003	1.749003	0	1	0	0	CorrectCommission	2.404006	1.465212	0	0	4.950000e+01
436.622833	1.319587	city	3	1	1.819451	1.819451	0	1	0	0	CorrectCommission	2.757214	1.484794	0	0	4.926087e+01
437.949066	1.332875	city	1	1	1.760537	1.760537	0	1	0	0	CorrectCommission	2.461833	1.494821	0	0	4.902174e+01
439.275299	1.319588	city	10	1	1.389869	1.389869	0	1	0	0	CorrectCommission	0.603400	1.498882	0	0	4.878261e+01
440.588196	1.306233	city	5	1	1.409238	1.409238	0	1	0	0	CorrectCommission	0.700511	1.500717	0	0	4.854348e+01
441.934418	1.386188	city	3	1	1.093871	1.093871	0	1	0	0	CorrectCommission	0.880664	1.503401	0	0	4.830435e+01
443.287323	1.319594	mountain	6	0	0.000000	1.147664	1	0	0	0	CorrectOmission	0.610957	1.508755	0	0	4.806522e+01
444.633514	1.372803	city	8	1	1.244331	1.244331	0	1	0	0	CorrectCommission	0.126295	1.517009	0	0	4.782609e+01
445.993042	1.346280	city	5	1	1.057582	1.057582	0	1	0	0	CorrectCommission	1.062606	1.526762	0	0	4.758696e+01
447.325958	1.319558	city	8	1	0.828234	0.828234	0	1	0	0	CorrectCommission	2.212499	1.535345	0	0	4.734783e+01
448.678864	1.386240	city	10	1	1.814560	1.814560	0	1	0	0	CorrectCommission	2.732695	1.539481	0	0	4.710870e+01
450.045105	1.346219	city	1	1	1.732679	1.732679	0	1	0	0	CorrectCommission	2.322162	1.536027	0	0	4.686957e+01
451.384644	1.332897	city	10	1	1.776742	1.776742	0	1	0	0	CorrectCommission	2.543083	1.522661	0	0	4.663043e+01
452.724213	1.346224	city	1	0	0.000000	1.710180	0	0	0	1	OmissionError	2.209357	1.498317	0	0	4.639130e+01
454.043701	1.292743	city	3	1	1.626743	1.626743	0	1	0	0	CorrectCommission	1.791026	1.463335	0	0	4.615217e+01
455.363251	1.346391	city	4	1	1.620183	1.620183	0	1	0	0	CorrectCommission	1.758134	1.419220	0	0	4.591304e+01
456.716217	1.359530	city	2	0	0.000000	1.414986	0	0	0	1	OmissionError	0.729327	1.368234	0	0	4.567391e+01
458.062439	1.332895	city	7	1	1.235257	1.235257	0	1	0	0	CorrectCommission	0.171789	1.312841	0	0	4.543478e+01
459.401947	1.346118	city	8	1	1.305101	1.305101	0	1	0	0	CorrectCommission	0.178394	1.255182	0	0	4.519565e+01
460.741516	1.333000	city	10	1	1.162261	1.162261	0	1	0	0	CorrectCommission	0.537771	1.196720	0	0	4.495652e+01
462.047791	1.279578	city	2	1	1.577079	1.577079	0	1	0	0	CorrectCommission	1.542023	1.138144	0	0	4.471739e+01
463.367371	1.359576	city	10	1	1.542272	1.542272	0	1	0	0	CorrectCommission	1.367508	1.079573	0	0	4.447826e+01
464.726929	1.359554	city	6	1	1.865797	1.865797	0	1	0	0	CorrectCommission	2.989582	1.020861	0	0	4.423913e+01
468.758850	6.704293	break	0	0	0.000000	1.642252	0	0	0	0	ThoughtProbe	1.868782	0.961892	0	44	44
472.770844	1.319707	city	10	1	1.304318	1.304318	0	1	0	0	CorrectCommission	0.174465	0.902942	0	0	4.385294e+01
474.123840	1.386237	city	3	1	1.284677	1.284677	0	1	0	0	CorrectCommission	0.075992	0.844782	0	0	4.370588e+01
475.496735	1.359554	city	9	1	1.123876	1.123876	0	1	0	0	CorrectCommission	0.730223	0.788585	0	0	4.355882e+01
476.862793	1.372602	mountain	10	1	1.364220	1.364220	0	0	1	0	CommissionError	0.474802	0.735745	0	0	4.341176e+01
478.222351	1.346475	city	9	1	1.240572	1.240572	0	1	0	0	CorrectCommission	0.145140	0.687647	0	0	4.326471e+01
479.548706	1.306267	city	3	1	1.135357	1.135357	0	1	0	0	CorrectCommission	0.672664	0.645445	1	0	4.311765e+01
480.854950	1.306239	city	7	1	1.417086	1.417086	0	1	0	0	CorrectCommission	0.739857	0.609834	1	0	4.297059e+01
482.227844	1.439523	city	4	1	1.252359	1.252359	0	1	0	0	CorrectCommission	0.086044	0.581004	1	0	4.282353e+01
483.587402	1.279580	city	6	1	1.407944	1.407944	0	1	0	0	CorrectCommission	0.694021	0.558683	1	0	4.267647e+01
484.933624	1.412851	city	10	1	1.110604	1.110604	0	1	0	0	CorrectCommission	0.796766	0.542209	1	0	4.252941e+01
486.306549	1.332999	city	8	1	1.253295	1.253295	0	1	0	0	CorrectCommission	0.081350	0.530710	1	0	4.238235e+01
487.632782	1.319479	city	10	1	1.448889	1.448889	0	1	0	0	CorrectCommission	0.899312	0.523242	1	0	4.223529e+01
488.972290	1.359567	city	1	1	1.243619	1.243619	0	1	0	0	CorrectCommission	0.129865	0.518919	1	0	4.208824e+01
490.331848	1.359536	city	10	1	1.059608	1.059608	0	1	0	0	CorrectCommission	1.052450	0.517032	1	0	4.194118e+01
491.718048	1.412849	city	1	1	1.292724	1.292724	0	1	0	0	CorrectCommission	0.116337	0.517062	1	0	4.179412e+01
493.124237	1.399550	city	3	1	1.125636	1.125636	0	1	0	0	CorrectCommission	0.721398	0.518769	1	0	4.164706e+01
494.503784	1.359540	city	7	1	1.181691	1.181691	0	1	0	0	CorrectCommission	0.440352	0.522130	1	0	4.150000e+01
495.836700	1.306263	city	3	1	1.360971	1.360971	0	1	0	0	CorrectCommission	0.458509	0.527444	1	0	4.135294e+01
497.169586	1.359529	city	4	1	1.340754	1.340754	0	1	0	0	CorrectCommission	0.357147	0.535344	1	0	4.120588e+01
498.562469	1.426219	city	3	1	1.179474	1.179474	0	1	0	0	CorrectCommission	0.451469	0.546986	1	0	4.105882e+01
499.962006	1.372881	mountain	10	1	1.246424	1.246424	0	0	1	0	CommissionError	0.115799	0.564156	1	0	4.091176e+01
501.321564	1.346222	city	10	1	1.076652	1.076652	0	1	0	0	CorrectCommission	0.966992	0.589477	1	0	4.076471e+01
502.634460	1.279570	city	5	1	1.527468	1.527468	0	1	0	0	CorrectCommission	1.293286	0.626487	1	0	4.061765e+01
503.960693	1.372894	city	10	1	1.247299	1.247299	0	1	0	0	CorrectCommission	0.111413	0.679624	0	0	4.047059e+01
505.306915	1.319563	city	1	1	1.426348	1.426348	0	1	0	0	CorrectCommission	0.786296	0.754060	0	0	4.032353e+01
506.633057	1.332732	city	4	1	1.390971	1.390971	0	1	0	0	CorrectCommission	0.608923	0.855223	0	0	4.017647e+01
508.019226	1.439598	city	5	1	1.341129	1.341129	0	1	0	0	CorrectCommission	0.359030	0.988295	0	0	4.002941e+01
509.418854	1.359676	city	4	1	1.340542	1.340542	0	1	0	0	CorrectCommission	0.356083	1.157473	0	0	3.988235e+01
510.785126	1.372835	city	8	1	1.299009	1.299009	0	1	0	0	CorrectCommission	0.147851	1.365205	0	0	3.973529e+01
512.157959	1.372900	city	6	1	1.127271	1.127271	0	1	0	0	CorrectCommission	0.713203	1.611570	0	0	3.958824e+01
513.564148	1.439437	city	9	1	1.267169	1.267169	0	1	0	0	CorrectCommission	0.011791	1.893807	0	0	3.944118e+01
515.003601	1.439481	city	5	1	0.966738	0.966738	0	1	0	0	CorrectCommission	1.518077	2.206248	0	0	3.929412e+01
516.383179	1.319696	city	6	1	0.871272	0.871272	0	1	0	0	CorrectCommission	1.996718	2.540531	0	0	3.914706e+01
520.535278	6.984481	break	0	0	0.693846	0.693846	0	0	0	0	ThoughtProbe	2.886286	2.886286	0	39	39
