onset	duration	trial_type	image_type	Press	ReactionTime	ReactionTime_Interpolated	CorrectOmission	CorrectCommission	CommissionError	OmissionError	response_type	nonsmoothVarianceTimeCourse	VarianceTimeCourse	In_the_Zone	ThoughtProbe	ThoughtProbe_Interpolated
0.652876	1.279739	city	1	0	0.000000	4.228623	0	0	0	1	OmissionError	9.993892	9.993892	0	0	59
1.932547	1.279601	city	3	0	0.000000	3.247154	0	0	0	1	OmissionError	6.693975	8.638457	0	0	59
3.212129	1.279563	city	6	1	2.265685	2.265685	0	1	0	0	CorrectCommission	3.394058	7.325401	0	0	59
4.491632	1.279444	city	3	1	1.284216	1.284216	0	1	0	0	CorrectCommission	0.094141	6.093270	0	0	59
5.771213	1.279718	city	8	1	1.175488	1.175488	0	1	0	0	CorrectCommission	0.271426	4.973530	0	0	59
7.050863	1.279583	city	3	1	1.603647	1.603647	0	1	0	0	CorrectCommission	1.168139	3.988245	0	0	59
8.330432	1.279554	city	1	1	1.477927	1.477927	0	1	0	0	CorrectCommission	0.745441	3.149138	0	0	59
9.609968	1.279519	city	6	1	1.444674	1.444674	0	1	0	0	CorrectCommission	0.633637	2.457913	0	0	59
10.889547	1.279638	mountain	3	0	0.000000	1.381895	1	0	0	0	CorrectOmission	0.422560	1.907539	0	0	59
12.169072	1.279412	city	2	1	1.348665	1.348665	0	1	0	0	CorrectCommission	0.310832	1.484323	0	0	59
13.448539	1.279520	city	6	1	1.404057	1.404057	0	1	0	0	CorrectCommission	0.497074	1.170328	0	0	59
14.728207	1.279817	city	10	1	1.371352	1.371352	0	1	0	0	CorrectCommission	0.387113	0.945715	0	0	59
16.014517	1.292803	city	2	1	1.356735	1.356735	0	1	0	0	CorrectCommission	0.337966	0.790822	0	0	59
17.307415	1.292995	city	5	1	1.127111	1.127111	0	1	0	0	CorrectCommission	0.434082	0.687700	0	0	59
18.593710	1.279593	mountain	8	0	0.000000	0.903035	1	0	0	0	CorrectOmission	1.187474	0.621114	0	0	59
19.873301	1.279589	city	8	1	0.914353	0.914353	0	1	0	0	CorrectCommission	1.149422	0.578967	1	0	59
21.152885	1.279579	city	9	1	1.390908	1.390908	0	1	0	0	CorrectCommission	0.452864	0.552294	1	0	59
22.432480	1.279610	city	4	1	1.401548	1.401548	0	1	0	0	CorrectCommission	0.488636	0.534896	1	0	59
23.712051	1.279533	city	10	1	1.232576	1.232576	0	1	0	0	CorrectCommission	0.079484	0.522734	1	0	59
24.991520	1.279406	city	2	1	1.284091	1.284091	0	1	0	0	CorrectCommission	0.093721	0.513352	1	0	59
26.271101	1.279757	city	4	1	1.459262	1.459262	0	1	0	0	CorrectCommission	0.682685	0.505344	1	0	59
27.550777	1.279596	city	6	1	1.185477	1.185477	0	1	0	0	CorrectCommission	0.237841	0.497924	1	0	59
28.830368	1.279583	city	9	1	1.085303	1.085303	0	1	0	0	CorrectCommission	0.574649	0.490686	1	0	59
30.109943	1.279569	city	6	1	0.983878	0.983878	0	1	0	0	CorrectCommission	0.915663	0.483450	1	0	59
31.389521	1.279588	city	3	1	1.129541	1.129541	0	1	0	0	CorrectCommission	0.425909	0.476256	1	0	59
32.669094	1.279559	city	6	1	1.036508	1.036508	0	1	0	0	CorrectCommission	0.738709	0.469421	1	0	59
33.948612	1.279473	city	1	1	1.016990	1.016990	0	1	0	0	CorrectCommission	0.804332	0.463456	1	0	59
35.228142	1.279587	city	5	1	1.231520	1.231520	0	1	0	0	CorrectCommission	0.083035	0.459047	1	0	59
36.507778	1.279687	city	8	1	1.257460	1.257460	0	1	0	0	CorrectCommission	0.004180	0.457000	1	0	59
37.787331	1.279420	city	4	1	1.449298	1.449298	0	1	0	0	CorrectCommission	0.649185	0.458058	1	0	59
39.066887	1.279686	mountain	9	0	0.000000	1.343110	1	0	0	0	CorrectOmission	0.292156	0.462746	1	0	59
40.346478	1.279494	city	8	1	1.177716	1.177716	0	1	0	0	CorrectCommission	0.263937	0.471274	1	0	59
41.626072	1.279700	city	10	1	1.191935	1.191935	0	1	0	0	CorrectCommission	0.216128	0.483417	1	0	59
42.905651	1.279457	city	1	1	1.398207	1.398207	0	1	0	0	CorrectCommission	0.477404	0.498481	1	0	59
44.185226	1.279695	city	5	1	1.447255	1.447255	0	1	0	0	CorrectCommission	0.642314	0.515333	1	0	59
45.464825	1.279500	city	3	1	1.514909	1.514909	0	1	0	0	CorrectCommission	0.869781	0.532532	1	0	59
46.744358	1.279569	city	4	1	1.345378	1.345378	0	1	0	0	CorrectCommission	0.299782	0.548444	1	0	59
48.023903	1.279515	city	9	1	1.198838	1.198838	0	1	0	0	CorrectCommission	0.192919	0.561484	1	0	59
49.303535	1.279754	city	3	1	1.080534	1.080534	0	1	0	0	CorrectCommission	0.590683	0.570305	1	0	59
53.215668	6.544511	break	0	0	0.000000	0.913324	0	0	0	0	ThoughtProbe	1.152880	0.573970	1	59	59
57.134384	1.292917	mountain	1	1	0.836209	0.836209	0	0	1	0	CommissionError	1.412158	0.572096	1	0	5.858696e+01
58.420551	1.279418	mountain	10	0	0.000000	0.988190	1	0	0	0	CorrectOmission	0.901164	0.564926	1	0	5.817391e+01
59.700081	1.279643	city	1	1	1.195692	1.195692	0	1	0	0	CorrectCommission	0.203495	0.553287	1	0	5.776087e+01
60.979664	1.279524	city	6	1	1.285141	1.285141	0	1	0	0	CorrectCommission	0.097253	0.538484	1	0	5.734783e+01
62.259289	1.279727	city	10	1	1.030653	1.030653	0	1	0	0	CorrectCommission	0.758393	0.522068	1	0	5.693478e+01
63.538872	1.279441	city	5	1	1.177576	1.177576	0	1	0	0	CorrectCommission	0.264406	0.505615	1	0	5.652174e+01
64.818398	1.279610	mountain	5	0	0.000000	1.364734	1	0	0	0	CorrectOmission	0.364861	0.490555	1	0	5.610870e+01
66.098000	1.279596	city	8	1	1.463018	1.463018	0	1	0	0	CorrectCommission	0.695313	0.477923	1	0	5.569565e+01
67.377541	1.279479	city	6	1	1.343318	1.343318	0	1	0	0	CorrectCommission	0.292856	0.468257	1	0	5.528261e+01
68.657097	1.279635	city	9	1	1.231924	1.231924	0	1	0	0	CorrectCommission	0.081675	0.461598	1	0	5.486957e+01
69.936707	1.279591	city	8	1	1.292138	1.292138	0	1	0	0	CorrectCommission	0.120778	0.457502	1	0	5.445652e+01
71.216347	1.279682	city	10	1	1.496907	1.496907	0	1	0	0	CorrectCommission	0.809255	0.455139	1	0	5.404348e+01
72.495979	1.279587	city	9	1	1.409094	1.409094	0	1	0	0	CorrectCommission	0.514008	0.453496	1	0	5.363043e+01
73.782219	1.292889	city	3	1	1.207500	1.207500	0	1	0	0	CorrectCommission	0.163795	0.451587	1	0	5.321739e+01
75.068420	1.279516	city	9	1	0.965291	0.965291	0	1	0	0	CorrectCommission	0.978156	0.448651	1	0	5.280435e+01
76.354668	1.292976	city	1	1	1.105170	1.105170	0	1	0	0	CorrectCommission	0.507850	0.444278	1	0	5.239130e+01
77.640953	1.279598	city	8	1	1.049349	1.049349	0	1	0	0	CorrectCommission	0.695535	0.438553	1	0	5.197826e+01
78.927162	1.292825	city	10	1	1.040784	1.040784	0	1	0	0	CorrectCommission	0.724333	0.432022	1	0	5.156522e+01
80.213409	1.279670	city	1	1	1.368074	1.368074	0	1	0	0	CorrectCommission	0.376092	0.425633	1	0	5.115217e+01
81.499687	1.292887	city	9	1	1.253573	1.253573	0	1	0	0	CorrectCommission	0.008887	0.420602	1	0	5.073913e+01
82.792595	1.292924	city	4	1	1.252108	1.252108	0	1	0	0	CorrectCommission	0.013813	0.418189	1	0	5.032609e+01
84.078773	1.279430	city	2	1	1.177974	1.177974	0	1	0	0	CorrectCommission	0.263068	0.419512	1	0	4.991304e+01
85.358345	1.279719	city	6	1	1.080743	1.080743	0	1	0	0	CorrectCommission	0.589982	0.425390	1	0	4.950000e+01
86.651321	1.306228	city	5	1	1.186995	1.186995	0	1	0	0	CorrectCommission	0.232738	0.436221	1	0	4.908696e+01
87.944138	1.279412	city	6	1	1.345715	1.345715	0	1	0	0	CorrectCommission	0.300913	0.451963	1	0	4.867391e+01
89.223724	1.279756	city	7	1	1.498713	1.498713	0	1	0	0	CorrectCommission	0.815327	0.472099	1	0	4.826087e+01
90.503365	1.279524	city	10	1	1.294668	1.294668	0	1	0	0	CorrectCommission	0.129284	0.495698	1	0	4.784783e+01
91.782883	1.279509	mountain	6	0	0.000000	1.330587	1	0	0	0	CorrectOmission	0.250051	0.521572	1	0	4.743478e+01
93.062492	1.279719	city	3	1	1.456567	1.456567	0	1	0	0	CorrectCommission	0.673625	0.548357	1	0	4.702174e+01
94.342102	1.279490	city	5	1	1.522707	1.522707	0	1	0	0	CorrectCommission	0.896000	0.574661	1	0	4.660870e+01
95.621628	1.279563	city	2	1	1.357341	1.357341	0	1	0	0	CorrectCommission	0.340002	0.599228	1	0	4.619565e+01
96.901169	1.279519	city	1	1	1.508079	1.508079	0	1	0	0	CorrectCommission	0.846818	0.621082	0	0	4.578261e+01
98.180779	1.279705	city	8	1	1.476007	1.476007	0	1	0	0	CorrectCommission	0.738984	0.639555	0	0	4.536957e+01
99.467094	1.292924	city	7	1	1.576426	1.576426	0	1	0	0	CorrectCommission	1.076617	0.654381	0	0	4.495652e+01
100.753349	1.279583	city	3	1	1.505021	1.505021	0	1	0	0	CorrectCommission	0.836537	0.665621	0	0	4.454348e+01
102.032890	1.279503	city	5	1	1.454501	1.454501	0	1	0	0	CorrectCommission	0.666676	0.673657	0	0	4.413043e+01
103.325737	1.306196	city	3	1	1.431229	1.431229	0	1	0	0	CorrectCommission	0.588431	0.679043	0	0	4.371739e+01
104.618668	1.279660	city	10	0	0.000000	1.172038	0	0	0	1	OmissionError	0.283028	0.682399	0	0	4.330435e+01
105.898270	1.279540	city	9	1	0.974275	0.974275	0	1	0	0	CorrectCommission	0.947949	0.684311	0	0	4.289130e+01
107.177872	1.279667	city	5	1	1.135290	1.135290	0	1	0	0	CorrectCommission	0.406580	0.685254	0	0	4.247826e+01
108.457420	1.279429	city	2	1	1.349988	1.349988	0	1	0	0	CorrectCommission	0.315280	0.685602	0	0	4.206522e+01
109.736984	1.279704	city	8	1	1.617081	1.617081	0	1	0	0	CorrectCommission	1.213306	0.685629	0	0	4.165217e+01
111.023293	1.292913	city	3	1	1.438058	1.438058	0	1	0	0	CorrectCommission	0.611392	0.685532	0	0	4.123913e+01
112.316124	1.292742	city	2	1	1.597979	1.597979	0	1	0	0	CorrectCommission	1.149083	0.685519	0	0	4.082609e+01
113.608963	1.292943	city	6	1	1.433900	1.433900	0	1	0	0	CorrectCommission	0.597412	0.685760	0	0	4.041304e+01
117.287849	6.064821	break	0	0	0.000000	1.441394	0	0	0	0	ThoughtProbe	0.622608	0.686410	0	40	40
120.960045	1.279577	mountain	8	0	0.000000	1.488707	1	0	0	0	CorrectOmission	0.781686	0.687500	0	0	3.952500e+01
122.239616	1.279554	city	3	1	1.444085	1.444085	0	1	0	0	CorrectCommission	0.631657	0.688847	0	0	3.905000e+01
123.519188	1.279590	city	1	1	1.175774	1.175774	0	1	0	0	CorrectCommission	0.270466	0.689984	0	0	3.857500e+01
124.798729	1.279499	city	8	1	1.200845	1.200845	0	1	0	0	CorrectCommission	0.186172	0.690127	0	0	3.810000e+01
126.078308	1.279654	city	7	1	1.507926	1.507926	0	1	0	0	CorrectCommission	0.846305	0.688211	0	0	3.762500e+01
127.364540	1.292806	city	5	1	1.428327	1.428327	0	1	0	0	CorrectCommission	0.578675	0.682998	0	0	3.715000e+01
128.657455	1.293034	city	6	1	1.749162	1.749162	0	1	0	0	CorrectCommission	1.657393	0.673323	0	0	3.667500e+01
129.943756	1.279580	city	9	1	1.374459	1.374459	0	1	0	0	CorrectCommission	0.397558	0.658263	0	0	3.620000e+01
131.229996	1.292878	city	3	1	1.518122	1.518122	0	1	0	0	CorrectCommission	0.880585	0.637421	0	0	3.572500e+01
132.516190	1.279519	city	9	1	1.663178	1.663178	0	1	0	0	CorrectCommission	1.368297	0.610984	0	0	3.525000e+01
133.795792	1.279671	mountain	7	0	0.000000	1.467203	1	0	0	0	CorrectOmission	0.709383	0.579795	1	0	3.477500e+01
135.075363	1.279484	city	10	1	1.187436	1.187436	0	1	0	0	CorrectCommission	0.231255	0.545304	1	0	3.430000e+01
136.354874	1.279531	city	4	1	1.081120	1.081120	0	1	0	0	CorrectCommission	0.588714	0.509367	1	0	3.382500e+01
137.634491	1.279693	city	5	1	1.304137	1.304137	0	1	0	0	CorrectCommission	0.161119	0.473985	1	0	3.335000e+01
138.914139	1.279604	city	2	1	1.355652	1.355652	0	1	0	0	CorrectCommission	0.334323	0.441065	1	0	3.287500e+01
140.193680	1.279491	city	3	1	1.296919	1.296919	0	1	0	0	CorrectCommission	0.136851	0.412176	1	0	3.240000e+01
141.486511	1.306166	city	9	1	1.208262	1.208262	0	1	0	0	CorrectCommission	0.161232	0.388431	1	0	3.192500e+01
142.779449	1.279705	city	5	1	1.301509	1.301509	0	1	0	0	CorrectCommission	0.152285	0.370405	1	0	3.145000e+01
144.059097	1.279587	city	2	1	1.231715	1.231715	0	1	0	0	CorrectCommission	0.082379	0.358228	1	0	3.097500e+01
145.371948	1.346133	city	8	1	1.156978	1.156978	0	1	0	0	CorrectCommission	0.333660	0.351667	1	0	3.050000e+01
146.718109	1.346177	city	5	1	1.020487	1.020487	0	1	0	0	CorrectCommission	0.792573	0.350312	1	0	3.002500e+01
148.037720	1.293048	city	4	1	1.149770	1.149770	0	1	0	0	CorrectCommission	0.357896	0.353711	1	0	2.955000e+01
149.330704	1.292932	city	1	1	1.144904	1.144904	0	1	0	0	CorrectCommission	0.374256	0.361476	1	0	2.907500e+01
150.630280	1.306215	city	10	1	1.041204	1.041204	0	1	0	0	CorrectCommission	0.722918	0.373273	1	0	2.860000e+01
151.923172	1.279578	city	6	1	1.195432	1.195432	0	1	0	0	CorrectCommission	0.204371	0.388752	1	0	2.812500e+01
153.202621	1.279318	city	8	1	1.243119	1.243119	0	1	0	0	CorrectCommission	0.044038	0.407444	1	0	2.765000e+01
154.482071	1.279577	city	4	1	1.179108	1.179108	0	1	0	0	CorrectCommission	0.259254	0.428581	1	0	2.717500e+01
155.761765	1.279821	city	9	1	1.289941	1.289941	0	1	0	0	CorrectCommission	0.113389	0.451001	1	0	2.670000e+01
157.041412	1.279459	mountain	2	0	0.000000	1.294087	1	0	0	0	CorrectOmission	0.127330	0.473151	1	0	2.622500e+01
158.321014	1.279754	city	10	1	1.311428	1.311428	0	1	0	0	CorrectCommission	0.185632	0.493207	1	0	2.575000e+01
159.600601	1.279427	city	1	1	1.461843	1.461843	0	1	0	0	CorrectCommission	0.691363	0.509288	1	0	2.527500e+01
160.886841	1.293029	city	5	1	1.680394	1.680394	0	1	0	0	CorrectCommission	1.426181	0.519731	1	0	2.480000e+01
162.173141	1.279590	city	2	1	1.667654	1.667654	0	1	0	0	CorrectCommission	1.383347	0.523428	1	0	2.432500e+01
163.452713	1.279556	city	3	1	1.605081	1.605081	0	1	0	0	CorrectCommission	1.172959	0.520038	1	0	2.385000e+01
164.732285	1.279583	city	2	1	1.298806	1.298806	0	1	0	0	CorrectCommission	0.143197	0.510070	1	0	2.337500e+01
166.018539	1.292913	city	10	1	1.351402	1.351402	0	1	0	0	CorrectCommission	0.320035	0.494877	1	0	2.290000e+01
167.304733	1.279474	city	3	1	1.298645	1.298645	0	1	0	0	CorrectCommission	0.142653	0.476405	1	0	2.242500e+01
168.584320	1.279712	city	5	1	1.512095	1.512095	0	1	0	0	CorrectCommission	0.860322	0.456950	1	0	2.195000e+01
169.863876	1.279392	city	3	1	1.284026	1.284026	0	1	0	0	CorrectCommission	0.093501	0.438770	1	0	2.147500e+01
173.609314	6.211475	break	0	0	0.000000	1.191267	0	0	0	0	ThoughtProbe	0.218375	0.423823	1	21	21
177.354782	1.279477	city	2	1	1.187599	1.187599	0	1	0	0	CorrectCommission	0.230708	0.413466	1	0	2.217647e+01
178.634338	1.279629	mountain	6	0	0.000000	1.226801	1	0	0	0	CorrectOmission	0.098900	0.408326	1	0	2.335294e+01
179.913971	1.279634	city	10	1	1.247260	1.247260	0	1	0	0	CorrectCommission	0.030114	0.408261	1	0	2.452941e+01
181.193481	1.279406	city	9	1	1.187358	1.187358	0	1	0	0	CorrectCommission	0.231517	0.412458	1	0	2.570588e+01
182.472977	1.279571	city	5	1	1.084888	1.084888	0	1	0	0	CorrectCommission	0.576044	0.419616	1	0	2.688235e+01
183.772583	1.319652	city	2	1	0.933410	0.933410	0	1	0	0	CorrectCommission	1.085346	0.428159	1	0	2.805882e+01
185.072250	1.279667	city	6	1	1.381197	1.381197	0	1	0	0	CorrectCommission	0.420213	0.436492	1	0	2.923529e+01
186.371857	1.319563	city	9	1	1.504723	1.504723	0	1	0	0	CorrectCommission	0.835536	0.443230	1	0	3.041176e+01
187.684708	1.306119	city	10	1	1.218698	1.218698	0	1	0	0	CorrectCommission	0.126144	0.447290	1	0	3.158824e+01
188.977539	1.279551	mountain	3	0	0.000000	1.149196	1	0	0	0	CorrectOmission	0.359826	0.448033	1	0	3.276471e+01
190.257111	1.279590	city	8	1	1.289004	1.289004	0	1	0	0	CorrectCommission	0.110239	0.445224	1	0	3.394118e+01
191.536713	1.279624	city	3	1	1.630910	1.630910	0	1	0	0	CorrectCommission	1.259803	0.439061	1	0	3.511765e+01
192.816360	1.279655	city	4	1	1.407131	1.407131	0	1	0	0	CorrectCommission	0.507409	0.430021	1	0	3.629412e+01
194.102631	1.292906	city	5	1	1.215890	1.215890	0	1	0	0	CorrectCommission	0.135587	0.418872	1	0	3.747059e+01
195.388840	1.279499	city	2	1	1.129322	1.129322	0	1	0	0	CorrectCommission	0.426648	0.406541	1	0	3.864706e+01
196.668427	1.279661	city	9	1	1.139507	1.139507	0	1	0	0	CorrectCommission	0.392404	0.394012	1	0	3.982353e+01
197.948029	1.279558	city	10	1	1.085054	1.085054	0	1	0	0	CorrectCommission	0.575485	0.382308	1	0	41
199.247528	1.319443	city	8	1	1.219468	1.219468	0	1	0	0	CorrectCommission	0.123555	0.372375	1	0	4.217647e+01
200.547119	1.279732	city	7	1	1.248854	1.248854	0	1	0	0	CorrectCommission	0.024755	0.365020	1	0	4.335294e+01
201.826706	1.279433	city	3	1	1.144487	1.144487	0	1	0	0	CorrectCommission	0.375658	0.360881	1	0	4.452941e+01
203.112930	1.293038	city	10	1	1.087069	1.087069	0	1	0	0	CorrectCommission	0.568712	0.360406	1	0	4.570588e+01
204.399261	1.279602	city	5	1	1.150412	1.150412	0	1	0	0	CorrectCommission	0.355738	0.363848	1	0	4.688235e+01
205.678848	1.279570	city	3	0	0.000000	1.264369	0	0	0	1	OmissionError	0.027413	0.371284	1	0	4.805882e+01
206.958328	1.279414	city	8	1	1.356445	1.356445	0	1	0	0	CorrectCommission	0.336989	0.382609	1	0	4.923529e+01
208.237869	1.279654	city	5	1	1.354140	1.354140	0	1	0	0	CorrectCommission	0.329241	0.397546	1	0	5.041176e+01
209.524185	1.292989	city	9	1	1.405159	1.405159	0	1	0	0	CorrectCommission	0.500780	0.415662	1	0	5.158824e+01
210.810455	1.279546	city	10	1	1.406429	1.406429	0	1	0	0	CorrectCommission	0.505050	0.436378	1	0	5.276471e+01
212.090042	1.279612	city	4	1	1.309163	1.309163	0	1	0	0	CorrectCommission	0.178019	0.458969	1	0	5.394118e+01
213.376266	1.292836	city	1	1	1.367859	1.367859	0	1	0	0	CorrectCommission	0.375369	0.482603	1	0	5.511765e+01
214.662506	1.279672	city	8	1	1.356688	1.356688	0	1	0	0	CorrectCommission	0.337808	0.506320	1	0	5.629412e+01
215.948715	1.292726	city	2	1	1.751237	1.751237	0	1	0	0	CorrectCommission	1.664370	0.529090	1	0	5.747059e+01
217.234863	1.279574	city	1	1	1.301029	1.301029	0	1	0	0	CorrectCommission	0.150669	0.549794	1	0	5.864706e+01
218.547729	1.346162	city	7	1	1.129417	1.129417	0	1	0	0	CorrectCommission	0.426329	0.567376	1	0	5.982353e+01
223.166306	7.890981	break	0	0	0.000000	1.234879	0	0	0	0	ThoughtProbe	0.071741	0.580788	1	61	61
227.751587	1.279577	city	6	1	1.249224	1.249224	0	1	0	0	CorrectCommission	0.023510	0.589176	1	0	6.044118e+01
229.031143	1.279559	city	8	1	0.804260	0.804260	0	1	0	0	CorrectCommission	1.519578	0.591940	1	0	5.988235e+01
230.310715	1.279573	city	7	1	0.650022	0.650022	0	1	0	0	CorrectCommission	2.038162	0.588799	1	0	5.932353e+01
231.590302	1.279613	city	8	1	1.336864	1.336864	0	1	0	0	CorrectCommission	0.271156	0.579876	1	0	5.876471e+01
232.869888	1.279552	city	1	1	1.100869	1.100869	0	1	0	0	CorrectCommission	0.522313	0.565721	1	0	5.820588e+01
234.149460	1.279596	city	5	1	1.136538	1.136538	0	1	0	0	CorrectCommission	0.402385	0.547166	1	0	5.764706e+01
235.429016	1.279495	city	10	1	1.177463	1.177463	0	1	0	0	CorrectCommission	0.264786	0.525257	1	0	5.708824e+01
236.708588	1.279665	mountain	7	1	1.069368	1.069368	0	0	1	0	CommissionError	0.628226	0.501105	1	0	5.652941e+01
237.988220	1.279583	city	7	1	1.284346	1.284346	0	1	0	0	CorrectCommission	0.094577	0.475766	1	0	5.597059e+01
239.267776	1.279556	city	3	1	1.123917	1.123917	0	1	0	0	CorrectCommission	0.444821	0.450191	1	0	5.541176e+01
240.547348	1.279583	city	7	1	1.177609	1.177609	0	1	0	0	CorrectCommission	0.264297	0.425174	1	0	5.485294e+01
241.826874	1.279449	city	5	1	1.017438	1.017438	0	1	0	0	CorrectCommission	0.802825	0.401421	1	0	5.429412e+01
243.106445	1.279706	city	10	1	1.070928	1.070928	0	1	0	0	CorrectCommission	0.622981	0.379570	1	0	5.373529e+01
244.386047	1.279489	city	7	1	1.342892	1.342892	0	1	0	0	CorrectCommission	0.291422	0.360271	1	0	5.317647e+01
245.665619	1.279662	city	5	1	1.337539	1.337539	0	1	0	0	CorrectCommission	0.273426	0.344201	1	0	5.261765e+01
246.945190	1.279498	city	2	1	1.337691	1.337691	0	1	0	0	CorrectCommission	0.273936	0.332056	1	0	5.205882e+01
248.224747	1.279604	city	10	1	1.248701	1.248701	0	1	0	0	CorrectCommission	0.025268	0.324484	1	0	5.150000e+01
249.504288	1.279482	city	3	1	1.175222	1.175222	0	1	0	0	CorrectCommission	0.272322	0.322027	1	0	5.094118e+01
250.783905	1.279740	mountain	8	0	0.000000	1.256482	1	0	0	0	CorrectOmission	0.000892	0.324997	1	0	5.038235e+01
252.063492	1.279428	city	6	1	1.342318	1.342318	0	1	0	0	CorrectCommission	0.289493	0.333473	1	0	4.982353e+01
253.343002	1.279594	city	10	1	1.282567	1.282567	0	1	0	0	CorrectCommission	0.088598	0.347199	1	0	4.926471e+01
254.622620	1.279647	city	1	1	1.073521	1.073521	0	1	0	0	CorrectCommission	0.614262	0.365639	1	0	4.870588e+01
255.902267	1.279661	city	9	1	1.194474	1.194474	0	1	0	0	CorrectCommission	0.207593	0.387984	1	0	4.814706e+01
257.181885	1.279570	city	3	1	1.121676	1.121676	0	1	0	0	CorrectCommission	0.452355	0.413266	1	0	4.758824e+01
258.461426	1.279511	city	2	1	1.396627	1.396627	0	1	0	0	CorrectCommission	0.472091	0.440394	1	0	4.702941e+01
259.740997	1.279650	city	6	1	1.404152	1.404152	0	1	0	0	CorrectCommission	0.497394	0.468312	1	0	4.647059e+01
261.020630	1.279578	city	2	1	1.139042	1.139042	0	1	0	0	CorrectCommission	0.393967	0.496074	1	0	4.591176e+01
262.300140	1.279431	city	1	1	1.017616	1.017616	0	1	0	0	CorrectCommission	0.802228	0.522929	1	0	4.535294e+01
263.579681	1.279675	city	9	1	1.124555	1.124555	0	1	0	0	CorrectCommission	0.442673	0.548361	1	0	4.479412e+01
264.859283	1.279558	city	6	1	1.350112	1.350112	0	1	0	0	CorrectCommission	0.315698	0.572172	1	0	4.423529e+01
266.138855	1.279548	city	1	1	0.925397	0.925397	0	1	0	0	CorrectCommission	1.112288	0.594459	1	0	4.367647e+01
267.418396	1.279543	city	4	1	0.995886	0.995886	0	1	0	0	CorrectCommission	0.875288	0.615596	0	0	4.311765e+01
268.697968	1.279576	city	5	1	1.124223	1.124223	0	1	0	0	CorrectCommission	0.443793	0.636224	0	0	4.255882e+01
273.156525	7.637558	break	0	0	0.000000	1.119512	0	0	0	0	ThoughtProbe	0.459630	0.657132	0	42	42
277.615112	1.279648	city	10	1	1.071343	1.071343	0	1	0	0	CorrectCommission	0.621584	0.679174	0	0	4.195000e+01
278.894714	1.279508	city	7	1	1.069305	1.069305	0	1	0	0	CorrectCommission	0.628437	0.703140	0	0	4.190000e+01
280.174286	1.279652	city	9	1	1.441976	1.441976	0	1	0	0	CorrectCommission	0.624565	0.729673	0	0	4.185000e+01
281.453827	1.279419	city	2	1	0.971709	0.971709	0	1	0	0	CorrectCommission	0.956576	0.759120	0	0	4.180000e+01
282.733398	1.279741	city	10	1	1.495212	1.495212	0	1	0	0	CorrectCommission	0.803558	0.791470	0	0	4.175000e+01
284.013031	1.279501	mountain	2	0	0.000000	1.384594	1	0	0	0	CorrectOmission	0.431633	0.826292	0	0	4.170000e+01
285.292603	1.279676	city	5	1	1.091881	1.091881	0	1	0	0	CorrectCommission	0.552533	0.862709	0	0	4.165000e+01
286.572235	1.279560	city	6	1	1.069102	1.069102	0	1	0	0	CorrectCommission	0.629120	0.899444	0	0	4.160000e+01
287.851776	1.279558	city	1	1	0.750689	0.750689	0	1	0	0	CorrectCommission	1.699696	0.934909	0	0	4.155000e+01
289.131287	1.279445	city	7	1	1.604952	1.604952	0	1	0	0	CorrectCommission	1.172526	0.967301	0	0	4.150000e+01
290.410858	1.279730	mountain	9	0	0.000000	1.368415	1	0	0	0	CorrectOmission	0.377236	0.994860	0	0	4.145000e+01
291.690521	1.279588	city	1	1	0.836452	0.836452	0	1	0	0	CorrectCommission	1.411343	1.016037	0	0	4.140000e+01
292.970123	1.279583	city	8	1	0.804436	0.804436	0	1	0	0	CorrectCommission	1.518985	1.029657	0	0	4.135000e+01
294.249695	1.279565	city	10	1	0.941146	0.941146	0	1	0	0	CorrectCommission	1.059338	1.035119	0	0	4.130000e+01
295.529266	1.279575	city	3	1	0.814518	0.814518	0	1	0	0	CorrectCommission	1.485087	1.032495	0	0	4.125000e+01
296.808838	1.279582	city	6	1	1.038657	1.038657	0	1	0	0	CorrectCommission	0.731484	1.022531	0	0	4.120000e+01
298.088440	1.279607	city	10	1	0.857039	0.857039	0	1	0	0	CorrectCommission	1.342122	1.006643	0	0	4.115000e+01
299.368011	1.279557	city	7	1	0.769776	0.769776	0	1	0	0	CorrectCommission	1.635522	0.986710	0	0	4.110000e+01
300.647491	1.279418	city	3	1	1.032294	1.032294	0	1	0	0	CorrectCommission	0.752876	0.964864	0	0	4.105000e+01
301.927002	1.279607	city	8	1	0.964464	0.964464	0	1	0	0	CorrectCommission	0.980937	0.943249	0	0	41
303.206696	1.279726	city	4	1	1.234335	1.234335	0	1	0	0	CorrectCommission	0.073570	0.923682	0	0	4.095000e+01
304.486298	1.279490	city	9	1	1.014925	1.014925	0	1	0	0	CorrectCommission	0.811275	0.907448	0	0	4.090000e+01
305.765869	1.279655	city	1	1	1.177776	1.177776	0	1	0	0	CorrectCommission	0.263733	0.895104	0	0	4.085000e+01
307.045471	1.279592	city	7	1	1.497468	1.497468	0	1	0	0	CorrectCommission	0.811143	0.886514	0	0	4.080000e+01
308.325012	1.279489	city	5	1	1.604196	1.604196	0	1	0	0	CorrectCommission	1.169984	0.880878	0	0	4.075000e+01
309.604584	1.279651	city	9	1	1.444247	1.444247	0	1	0	0	CorrectCommission	0.632202	0.876964	0	0	4.070000e+01
310.884186	1.279541	city	8	1	1.744915	1.744915	0	1	0	0	CorrectCommission	1.643112	0.873399	0	0	4.065000e+01
312.163788	1.279621	city	5	1	1.678241	1.678241	0	1	0	0	CorrectCommission	1.418940	0.868898	0	0	4.060000e+01
313.443329	1.279506	city	4	1	1.389593	1.389593	0	1	0	0	CorrectCommission	0.448442	0.862582	0	0	4.055000e+01
314.722931	1.279661	mountain	4	0	0.000000	1.171234	1	0	0	0	CorrectOmission	0.285731	0.854141	0	0	4.050000e+01
316.002533	1.279572	city	6	1	0.974696	0.974696	0	1	0	0	CorrectCommission	0.946533	0.843879	0	0	4.045000e+01
317.282104	1.279580	city	5	1	0.751515	0.751515	0	1	0	0	CorrectCommission	1.696920	0.832688	0	0	4.040000e+01
318.561615	1.279437	city	2	1	1.603866	1.603866	0	1	0	0	CorrectCommission	1.168874	0.821942	0	0	4.035000e+01
319.841217	1.279744	city	10	1	1.391903	1.391903	0	1	0	0	CorrectCommission	0.456208	0.813273	0	0	4.030000e+01
321.120789	1.279412	city	9	1	1.178437	1.178437	0	1	0	0	CorrectCommission	0.261511	0.808314	0	0	4.025000e+01
322.400360	1.279734	city	6	1	1.080979	1.080979	0	1	0	0	CorrectCommission	0.589189	0.808406	0	0	4.020000e+01
323.679993	1.279559	city	8	1	1.072151	1.072151	0	1	0	0	CorrectCommission	0.618870	0.814350	0	0	4.015000e+01
324.959595	1.279604	city	6	1	1.081596	1.081596	0	1	0	0	CorrectCommission	0.587112	0.826255	0	0	4.010000e+01
326.239136	1.279485	city	8	1	1.015168	1.015168	0	1	0	0	CorrectCommission	0.810457	0.843458	0	0	4.005000e+01
329.677979	5.598228	break	0	0	0.000000	1.086037	0	0	0	0	ThoughtProbe	0.572181	0.864580	0	40	40
333.116913	1.279602	city	1	1	1.132805	1.132805	0	1	0	0	CorrectCommission	0.414938	0.887725	0	0	3.986957e+01
334.396484	1.279578	city	9	1	0.994074	0.994074	0	1	0	0	CorrectCommission	0.881381	0.910716	0	0	3.973913e+01
335.676056	1.279547	city	10	1	0.645244	0.645244	0	1	0	0	CorrectCommission	2.054226	0.931399	0	0	3.960870e+01
336.955627	1.279602	city	8	1	1.708941	1.708941	0	1	0	0	CorrectCommission	1.522161	0.947880	0	0	3.947826e+01
338.235229	1.279592	city	9	1	1.604380	1.604380	0	1	0	0	CorrectCommission	1.170602	0.958785	0	0	3.934783e+01
339.514771	1.279479	city	7	1	1.550804	1.550804	0	1	0	0	CorrectCommission	0.990470	0.963313	0	0	3.921739e+01
340.794250	1.279501	city	9	1	1.134190	1.134190	0	1	0	0	CorrectCommission	0.410279	0.961223	0	0	3.908696e+01
342.073822	1.279605	city	5	1	1.017862	1.017862	0	1	0	0	CorrectCommission	0.801399	0.952795	0	0	3.895652e+01
343.353394	1.279584	city	9	1	0.964670	0.964670	0	1	0	0	CorrectCommission	0.980243	0.938593	0	0	3.882609e+01
344.633057	1.279722	city	6	1	0.753531	0.753531	0	1	0	0	CorrectCommission	1.690139	0.919364	0	0	3.869565e+01
345.912689	1.279564	city	2	1	1.551127	1.551127	0	1	0	0	CorrectCommission	0.991555	0.895872	0	0	3.856522e+01
347.192200	1.279435	mountain	5	0	0.000000	1.492256	1	0	0	0	CorrectOmission	0.793618	0.868813	0	0	3.843478e+01
348.471771	1.279740	city	3	1	1.143386	1.143386	0	1	0	0	CorrectCommission	0.379361	0.838713	0	0	3.830435e+01
349.751373	1.279413	mountain	9	1	1.070984	1.070984	0	0	1	0	CommissionError	0.622792	0.805951	0	0	3.817391e+01
351.030884	1.279648	city	10	1	1.071210	1.071210	0	1	0	0	CorrectCommission	0.622033	0.770805	0	0	3.804348e+01
352.310455	1.279489	mountain	8	1	0.857469	0.857469	0	0	1	0	CommissionError	1.340678	0.733561	0	0	3.791304e+01
353.590027	1.279656	city	8	1	1.033580	1.033580	0	1	0	0	CorrectCommission	0.748555	0.694610	0	0	3.778261e+01
354.869720	1.279690	city	3	1	0.978844	0.978844	0	1	0	0	CorrectCommission	0.932589	0.654576	0	0	3.765217e+01
356.149261	1.279415	city	9	1	1.017717	1.017717	0	1	0	0	CorrectCommission	0.801889	0.614366	0	0	3.752174e+01
357.428833	1.279720	city	4	1	1.389288	1.389288	0	1	0	0	CorrectCommission	0.447417	0.575191	1	0	3.739130e+01
358.708496	1.279595	city	2	1	1.187828	1.187828	0	1	0	0	CorrectCommission	0.229936	0.538522	1	0	3.726087e+01
359.988068	1.279565	city	10	1	1.124295	1.124295	0	1	0	0	CorrectCommission	0.443550	0.505973	1	0	3.713043e+01
361.267639	1.279585	city	8	1	1.141924	1.141924	0	1	0	0	CorrectCommission	0.384277	0.479157	1	0	37
362.547211	1.279578	mountain	4	0	0.000000	1.220861	1	0	0	0	CorrectOmission	0.118874	0.459538	1	0	3.686957e+01
363.826782	1.279572	city	4	1	1.296088	1.296088	0	1	0	0	CorrectCommission	0.134058	0.448273	1	0	3.673913e+01
365.106293	1.279445	city	7	1	1.302590	1.302590	0	1	0	0	CorrectCommission	0.155918	0.446078	1	0	3.660870e+01
366.385895	1.279719	city	2	1	0.911385	0.911385	0	1	0	0	CorrectCommission	1.159399	0.453148	1	0	3.647826e+01
367.665527	1.279595	city	1	1	1.283533	1.283533	0	1	0	0	CorrectCommission	0.091846	0.469054	1	0	3.634783e+01
368.945129	1.279563	city	6	1	1.282290	1.282290	0	1	0	0	CorrectCommission	0.087665	0.492769	1	0	3.621739e+01
370.224701	1.279585	city	2	1	1.336370	1.336370	0	1	0	0	CorrectCommission	0.269494	0.522673	1	0	3.608696e+01
371.504272	1.279591	city	6	1	1.338240	1.338240	0	1	0	0	CorrectCommission	0.275780	0.556651	1	0	3.595652e+01
372.783844	1.279554	city	8	1	1.139143	1.139143	0	1	0	0	CorrectCommission	0.393627	0.592271	1	0	3.582609e+01
374.063446	1.279604	city	9	1	0.979915	0.979915	0	1	0	0	CorrectCommission	0.928988	0.627046	0	0	3.569565e+01
375.343018	1.279576	city	4	1	0.964299	0.964299	0	1	0	0	CorrectCommission	0.981490	0.658688	0	0	3.556522e+01
376.622589	1.279561	city	3	1	1.018353	1.018353	0	1	0	0	CorrectCommission	0.799751	0.685416	0	0	3.543478e+01
377.902161	1.279579	city	7	1	0.909761	0.909761	0	1	0	0	CorrectCommission	1.164861	0.706154	0	0	3.530435e+01
379.181763	1.279611	city	8	1	1.550868	1.550868	0	1	0	0	CorrectCommission	0.990686	0.720660	0	0	3.517391e+01
380.461304	1.279483	city	3	1	1.608922	1.608922	0	1	0	0	CorrectCommission	1.185876	0.729524	0	0	3.504348e+01
381.740875	1.279673	city	2	1	1.551040	1.551040	0	1	0	0	CorrectCommission	0.991264	0.733994	0	0	3.491304e+01
383.020508	1.279566	city	6	1	1.494935	1.494935	0	1	0	0	CorrectCommission	0.802624	0.735737	0	0	3.478261e+01
384.300079	1.279564	city	1	1	1.337525	1.337525	0	1	0	0	CorrectCommission	0.273378	0.736484	0	0	3.465217e+01
385.579651	1.279592	city	3	1	1.231590	1.231590	0	1	0	0	CorrectCommission	0.082800	0.737717	0	0	3.452174e+01
386.859161	1.279426	city	10	1	1.281642	1.281642	0	1	0	0	CorrectCommission	0.085486	0.740403	0	0	3.439130e+01
388.138733	1.279719	city	4	1	1.499993	1.499993	0	1	0	0	CorrectCommission	0.819631	0.744881	0	0	3.426087e+01
389.418365	1.279552	city	8	1	1.357884	1.357884	0	1	0	0	CorrectCommission	0.341830	0.750873	0	0	3.413043e+01
393.123810	6.131369	break	0	0	0.000000	1.613633	0	0	0	0	ThoughtProbe	1.201715	0.757684	0	34	34
396.829285	1.279554	city	3	1	1.723435	1.723435	0	1	0	0	CorrectCommission	1.570895	0.764418	0	0	3.414706e+01
398.108826	1.279519	city	5	1	1.143486	1.143486	0	1	0	0	CorrectCommission	0.379026	0.770259	0	0	3.429412e+01
399.388306	1.279483	city	8	1	0.748667	0.748667	0	1	0	0	CorrectCommission	1.706495	0.774657	0	0	3.444118e+01
400.667938	1.279744	city	7	1	1.618836	1.618836	0	1	0	0	CorrectCommission	1.219207	0.777372	0	0	3.458824e+01
401.947601	1.279583	city	8	1	1.390916	1.390916	0	1	0	0	CorrectCommission	0.452889	0.778518	0	0	3.473529e+01
403.227173	1.279582	city	6	1	1.156217	1.156217	0	1	0	0	CorrectCommission	0.336219	0.778417	0	0	3.488235e+01
404.506744	1.279563	mountain	2	0	0.000000	1.278988	1	0	0	0	CorrectOmission	0.076565	0.777433	0	0	3.502941e+01
405.786346	1.279605	city	4	1	1.391040	1.391040	0	1	0	0	CorrectCommission	0.453306	0.775836	0	0	3.517647e+01
407.065887	1.279506	city	2	1	1.124182	1.124182	0	1	0	0	CorrectCommission	0.443929	0.773762	0	0	3.532353e+01
408.345459	1.279630	city	4	1	0.935842	0.935842	0	1	0	0	CorrectCommission	1.077169	0.771278	0	0	3.547059e+01
409.625061	1.279578	city	6	1	0.728092	0.728092	0	1	0	0	CorrectCommission	1.775673	0.768463	0	0	3.561765e+01
410.904572	1.279426	city	9	1	1.023481	1.023481	0	1	0	0	CorrectCommission	0.782508	0.765530	0	0	3.576471e+01
412.184143	1.279733	city	2	1	0.858599	0.858599	0	1	0	0	CorrectCommission	1.336877	0.762994	0	0	3.591176e+01
413.463745	1.279440	city	3	1	1.550726	1.550726	0	1	0	0	CorrectCommission	0.990208	0.761585	0	0	3.605882e+01
414.743408	1.279939	city	7	1	1.388843	1.388843	0	1	0	0	CorrectCommission	0.445919	0.762185	0	0	3.620588e+01
416.023041	1.279285	city	6	1	1.240954	1.240954	0	1	0	0	CorrectCommission	0.051314	0.765638	0	0	3.635294e+01
417.302490	1.279634	city	9	1	1.198584	1.198584	0	1	0	0	CorrectCommission	0.193773	0.772536	0	0	3.650000e+01
418.582031	1.279454	city	7	1	1.175735	1.175735	0	1	0	0	CorrectCommission	0.270596	0.783036	0	0	3.664706e+01
419.861633	1.279717	city	6	1	1.284953	1.284953	0	1	0	0	CorrectCommission	0.096619	0.796800	0	0	3.679412e+01
421.141266	1.279590	city	10	1	1.715766	1.715766	0	1	0	0	CorrectCommission	1.545108	0.812977	0	0	3.694118e+01
422.420807	1.279473	city	2	1	1.870583	1.870583	0	1	0	0	CorrectCommission	2.065638	0.830353	0	0	3.708824e+01
423.700378	1.279697	mountain	5	1	0.911118	0.911118	0	0	1	0	CommissionError	1.160297	0.847524	0	0	3.723529e+01
424.980042	1.279580	city	9	1	1.390846	1.390846	0	1	0	0	CorrectCommission	0.452656	0.863130	0	0	3.738235e+01
426.259552	1.279490	city	10	1	1.182990	1.182990	0	1	0	0	CorrectCommission	0.246203	0.875998	0	0	3.752941e+01
427.539124	1.279658	city	6	1	0.965117	0.965117	0	1	0	0	CorrectCommission	0.978739	0.885221	0	0	3.767647e+01
428.818695	1.279459	city	5	1	1.709274	1.709274	0	1	0	0	CorrectCommission	1.523281	0.890223	0	0	3.782353e+01
430.098206	1.279555	city	3	1	1.352368	1.352368	0	1	0	0	CorrectCommission	0.323282	0.890821	0	0	3.797059e+01
431.377777	1.279588	city	2	1	0.964555	0.964555	0	1	0	0	CorrectCommission	0.980631	0.887214	0	0	3.811765e+01
432.657410	1.279704	city	5	1	0.751534	0.751534	0	1	0	0	CorrectCommission	1.696854	0.879871	0	0	3.826471e+01
433.937073	1.279602	city	4	1	1.604144	1.604144	0	1	0	0	CorrectCommission	1.169811	0.869495	0	0	3.841176e+01
435.216644	1.279555	city	3	1	1.295976	1.295976	0	1	0	0	CorrectCommission	0.133682	0.856950	0	0	3.855882e+01
436.496216	1.279589	city	7	1	0.962010	0.962010	0	1	0	0	CorrectCommission	0.989188	0.843142	0	0	3.870588e+01
437.775818	1.279573	city	1	1	0.914030	0.914030	0	1	0	0	CorrectCommission	1.150508	0.828844	0	0	3.885294e+01
441.514557	6.197953	break	0	1	1.124091	1.124091	0	0	0	0	ThoughtProbe	0.444233	0.814665	0	39	39
445.253357	1.279598	city	10	1	1.179026	1.179026	0	1	0	0	CorrectCommission	0.259531	0.800958	0	0	3.856522e+01
446.532928	1.279589	city	7	1	1.444020	1.444020	0	1	0	0	CorrectCommission	0.631437	0.787801	0	0	3.813043e+01
447.812439	1.279426	city	9	1	0.978552	0.978552	0	1	0	0	CorrectCommission	0.933571	0.775026	0	0	3.769565e+01
449.092010	1.279704	mountain	4	1	0.749141	0.749141	0	0	1	0	CommissionError	1.704900	0.762316	0	0	3.726087e+01
450.371582	1.279441	city	3	1	1.339609	1.339609	0	1	0	0	CorrectCommission	0.280385	0.749270	0	0	3.682609e+01
451.651093	1.279556	city	9	1	0.964592	0.964592	0	1	0	0	CorrectCommission	0.980507	0.735589	0	0	3.639130e+01
452.930725	1.279762	city	7	1	1.187431	1.187431	0	1	0	0	CorrectCommission	0.231271	0.721100	0	0	3.595652e+01
454.210327	1.279420	city	3	1	0.964352	0.964352	0	1	0	0	CorrectCommission	0.981314	0.705882	0	0	3.552174e+01
455.489899	1.279746	city	10	1	0.997940	0.997940	0	1	0	0	CorrectCommission	0.868382	0.690244	0	0	3.508696e+01
456.769592	1.279589	mountain	10	1	1.022954	1.022954	0	0	1	0	CommissionError	0.784279	0.674770	0	0	3.465217e+01
458.049133	1.279542	mountain	9	0	0.000000	1.246577	1	0	0	0	CorrectOmission	0.032410	0.660254	0	0	3.421739e+01
459.328705	1.279598	city	6	1	1.497461	1.497461	0	1	0	0	CorrectCommission	0.811118	0.647616	0	0	3.378261e+01
460.608307	1.279577	city	5	1	1.604259	1.604259	0	1	0	0	CorrectCommission	1.170198	0.637723	0	0	3.334783e+01
461.887817	1.279454	city	4	1	1.411467	1.411467	0	1	0	0	CorrectCommission	0.521989	0.631272	0	0	3.291304e+01
463.167358	1.279613	city	2	1	1.420665	1.420665	0	1	0	0	CorrectCommission	0.552912	0.628665	0	0	3.247826e+01
464.446930	1.279517	city	9	1	1.281680	1.281680	0	1	0	0	CorrectCommission	0.085615	0.629825	0	0	3.204348e+01
465.726532	1.279721	city	1	1	1.177505	1.177505	0	1	0	0	CorrectCommission	0.264644	0.634142	0	0	3.160870e+01
467.006195	1.279573	city	7	1	1.402004	1.402004	0	1	0	0	CorrectCommission	0.490169	0.640460	0	0	3.117391e+01
468.285767	1.279617	city	5	1	1.390944	1.390944	0	1	0	0	CorrectCommission	0.452984	0.647214	0	0	3.073913e+01
469.565277	1.279380	city	9	1	1.123505	1.123505	0	1	0	0	CorrectCommission	0.446205	0.652597	0	0	3.030435e+01
470.844849	1.279761	city	10	1	0.876093	0.876093	0	1	0	0	CorrectCommission	1.278060	0.654819	0	0	2.986957e+01
472.124756	1.280047	city	5	1	0.858830	0.858830	0	1	0	0	CorrectCommission	1.336102	0.652355	0	0	2.943478e+01
473.404327	1.279099	city	3	1	1.744372	1.744372	0	1	0	0	CorrectCommission	1.641287	0.644202	0	0	29
474.683655	1.279573	city	1	1	1.370457	1.370457	0	1	0	0	CorrectCommission	0.384102	0.629949	0	0	2.856522e+01
475.963165	1.279446	city	7	1	1.175319	1.175319	0	1	0	0	CorrectCommission	0.271994	0.609859	1	0	2.813043e+01
477.242706	1.279619	city	9	1	1.192740	1.192740	0	1	0	0	CorrectCommission	0.213420	0.584705	1	0	2.769565e+01
478.522369	1.279724	city	10	1	1.016322	1.016322	0	1	0	0	CorrectCommission	0.806577	0.555708	1	0	2.726087e+01
479.802002	1.279521	mountain	7	0	0.000000	1.068066	1	0	0	0	CorrectOmission	0.632604	0.524317	1	0	2.682609e+01
481.081573	1.279639	city	10	1	1.178198	1.178198	0	1	0	0	CorrectCommission	0.262315	0.492111	1	0	2.639130e+01
482.361115	1.279468	city	1	1	1.176945	1.176945	0	1	0	0	CorrectCommission	0.266529	0.460686	1	0	2.595652e+01
483.640656	1.279581	city	5	1	1.102708	1.102708	0	1	0	0	CorrectCommission	0.516131	0.431617	1	0	2.552174e+01
484.920258	1.279641	city	3	1	1.105112	1.105112	0	1	0	0	CorrectCommission	0.508048	0.406502	1	0	2.508696e+01
486.199890	1.279587	city	6	1	1.088401	1.088401	0	1	0	0	CorrectCommission	0.564232	0.387012	1	0	2.465217e+01
487.479370	1.279399	city	2	1	1.282256	1.282256	0	1	0	0	CorrectCommission	0.087551	0.374924	1	0	2.421739e+01
488.758942	1.279744	city	4	1	1.316253	1.316253	0	1	0	0	CorrectCommission	0.201857	0.372144	1	0	2.378261e+01
490.038574	1.279497	city	3	1	1.363026	1.363026	0	1	0	0	CorrectCommission	0.359117	0.380672	1	0	2.334783e+01
491.318115	1.279638	city	5	1	1.284260	1.284260	0	1	0	0	CorrectCommission	0.094288	0.402499	1	0	2.291304e+01
492.597717	1.279530	city	1	1	1.305945	1.305945	0	1	0	0	CorrectCommission	0.167197	0.439484	1	0	2.247826e+01
493.877319	1.279672	city	9	1	1.228925	1.228925	0	1	0	0	CorrectCommission	0.091761	0.493138	1	0	2.204348e+01
495.156891	1.279492	city	6	1	1.352800	1.352800	0	1	0	0	CorrectCommission	0.324736	0.564411	1	0	2.160870e+01
496.436401	1.279507	city	4	1	1.231204	1.231204	0	1	0	0	CorrectCommission	0.084096	0.653495	0	0	2.117391e+01
497.716003	1.279737	city	1	1	0.974720	0.974720	0	1	0	0	CorrectCommission	0.946453	0.759674	0	0	2.073913e+01
498.995667	1.279585	city	2	1	1.176923	1.176923	0	1	0	0	CorrectCommission	0.266600	0.881192	0	0	2.030435e+01
500.275269	1.279574	city	10	1	1.071056	1.071056	0	1	0	0	CorrectCommission	0.622549	1.015321	0	0	1.986957e+01
501.554840	1.279576	city	8	1	1.357878	1.357878	0	1	0	0	CorrectCommission	0.341809	1.158410	0	0	1.943478e+01
505.793518	7.197777	break	0	0	0.000000	1.644699	0	0	0	0	ThoughtProbe	1.306166	1.306166	0	19	19
