onset	duration	trial_type	image_type	Press	ReactionTime	ReactionTime_Interpolated	CorrectOmission	CorrectCommission	CommissionError	OmissionError	response_type	nonsmoothVarianceTimeCourse	VarianceTimeCourse	In_the_Zone	ThoughtProbe	ThoughtProbe_Interpolated
0.652936	1.279586	city	2	1	1.705522	1.705522	0	1	0	0	CorrectCommission	1.883805	1.883805	0	0	74
1.965759	1.346061	city	7	1	1.418951	1.418951	0	1	0	0	CorrectCommission	0.412119	1.701748	0	0	74
3.278570	1.279562	mountain	7	0	0.000000	1.404952	1	0	0	0	CorrectOmission	0.340224	1.526091	0	0	74
4.558220	1.279737	city	4	1	1.355388	1.355388	0	1	0	0	CorrectCommission	0.085688	1.362631	0	0	74
5.837892	1.279607	city	8	1	0.962124	0.962124	0	1	0	0	CorrectCommission	1.933923	1.216125	0	0	74
7.117483	1.279574	city	9	1	1.283675	1.283675	0	1	0	0	CorrectCommission	0.282595	1.089915	0	0	74
8.397046	1.279551	city	6	1	1.092814	1.092814	0	1	0	0	CorrectCommission	1.262760	0.985902	0	0	74
9.676624	1.279607	city	5	1	1.302236	1.302236	0	1	0	0	CorrectCommission	0.187273	0.904480	0	0	74
10.956216	1.279576	city	6	1	1.319145	1.319145	0	1	0	0	CorrectCommission	0.100440	0.844819	0	0	74
12.249126	1.306245	city	2	1	1.219383	1.219383	0	1	0	0	CorrectCommission	0.612766	0.805052	0	0	74
13.548573	1.292649	city	4	1	1.207474	1.207474	0	1	0	0	CorrectCommission	0.673926	0.782623	0	0	74
14.834803	1.279810	city	9	1	1.071286	1.071286	0	1	0	0	CorrectCommission	1.373322	0.774582	0	0	74
16.114494	1.279573	mountain	5	0	0.000000	1.164000	1	0	0	0	CorrectOmission	0.897187	0.777806	0	0	74
17.394083	1.279604	city	3	1	1.284521	1.284521	0	1	0	0	CorrectCommission	0.278247	0.789238	0	0	74
18.673594	1.279418	city	1	1	1.231755	1.231755	0	1	0	0	CorrectCommission	0.549229	0.806001	0	0	74
19.953079	1.279552	city	5	1	1.237042	1.237042	0	1	0	0	CorrectCommission	0.522078	0.825495	0	0	74
21.232695	1.279677	city	7	1	1.210191	1.210191	0	1	0	0	CorrectCommission	0.659970	0.845524	0	0	74
22.512276	1.279488	mountain	3	0	0.000000	1.145064	1	0	0	0	CorrectOmission	0.994432	0.864315	0	0	74
23.791901	1.279760	city	9	1	1.071343	1.071343	0	1	0	0	CorrectCommission	1.373027	0.880630	0	0	74
25.071480	1.279399	city	6	1	1.018711	1.018711	0	1	0	0	CorrectCommission	1.643320	0.893732	0	0	74
26.351061	1.279765	city	5	1	0.986223	0.986223	0	1	0	0	CorrectCommission	1.810160	0.903343	0	0	74
27.637367	1.292848	city	1	1	1.199187	1.199187	0	1	0	0	CorrectCommission	0.716480	0.909544	0	0	74
28.930180	1.292776	city	4	1	1.310155	1.310155	0	1	0	0	CorrectCommission	0.146608	0.912612	0	0	74
30.216406	1.279676	city	7	1	1.362679	1.362679	0	1	0	0	CorrectCommission	0.123135	0.912818	0	0	74
31.502733	1.292978	city	4	1	1.229145	1.229145	0	1	0	0	CorrectCommission	0.562631	0.910248	0	0	74
32.789024	1.279606	city	1	1	1.180846	1.180846	0	1	0	0	CorrectCommission	0.810672	0.904751	0	0	74
34.068600	1.279548	city	8	1	1.028004	1.028004	0	1	0	0	CorrectCommission	1.595594	0.895935	0	0	74
35.354748	1.292743	city	1	1	0.995146	0.995146	0	1	0	0	CorrectCommission	1.764335	0.883348	0	0	74
36.647663	1.293090	city	3	1	1.164820	1.164820	0	1	0	0	CorrectCommission	0.892976	0.866589	0	0	74
37.933990	1.279560	city	9	1	1.134952	1.134952	0	1	0	0	CorrectCommission	1.046361	0.845530	0	0	74
39.220249	1.292957	city	1	1	1.249602	1.249602	0	1	0	0	CorrectCommission	0.457577	0.820420	0	0	74
40.506493	1.279534	city	10	1	1.192564	1.192564	0	1	0	0	CorrectCommission	0.750494	0.791939	0	0	74
41.812706	1.332895	city	3	1	1.164384	1.164384	0	1	0	0	CorrectCommission	0.895214	0.761188	0	0	74
43.118942	1.279575	city	1	1	1.185930	1.185930	0	1	0	0	CorrectCommission	0.784564	0.729614	0	0	74
44.405186	1.292909	city	2	1	1.196648	1.196648	0	1	0	0	CorrectCommission	0.729521	0.698868	1	0	74
45.698101	1.292922	city	10	1	1.205714	1.205714	0	1	0	0	CorrectCommission	0.682963	0.670654	1	0	74
46.991005	1.292883	mountain	9	0	0.000000	1.298953	1	0	0	0	CorrectOmission	0.204133	0.646527	1	0	74
48.283916	1.292943	city	5	1	1.427666	1.427666	0	1	0	0	CorrectCommission	0.456875	0.627720	1	0	74
49.570129	1.279484	city	9	1	1.543154	1.543154	0	1	0	0	CorrectCommission	1.049965	0.614988	1	0	74
50.863037	1.306332	city	1	1	1.331700	1.331700	0	1	0	0	CorrectCommission	0.035959	0.608468	1	0	74
52.162605	1.292800	city	5	1	1.438907	1.438907	0	1	0	0	CorrectCommission	0.514601	0.607687	1	0	74
53.462128	1.306252	city	2	1	1.364932	1.364932	0	1	0	0	CorrectCommission	0.134700	0.611518	1	0	74
54.755020	1.279530	city	8	1	1.238932	1.238932	0	1	0	0	CorrectCommission	0.512373	0.618336	1	0	74
56.034634	1.279697	city	7	1	1.206901	1.206901	0	1	0	0	CorrectCommission	0.676866	0.626182	1	0	74
57.314198	1.279427	city	8	1	1.187867	1.187867	0	1	0	0	CorrectCommission	0.774616	0.633013	1	0	74
57.953911	8.464086	break	0	0	0.000000	1.465754	0	0	0	0	ThoughtProbe	0.652474	0.636946	1	74	74
67.057762	1.279531	city	2	1	1.683182	1.683182	0	1	0	0	CorrectCommission	1.769078	0.636482	1	0	7.379412e+01
68.343987	1.292916	city	8	1	1.482772	1.482772	0	1	0	0	CorrectCommission	0.739869	0.630654	1	0	7.358824e+01
69.643471	1.306063	city	2	1	1.379495	1.379495	0	1	0	0	CorrectCommission	0.209489	0.619205	1	0	7.338235e+01
70.942963	1.292916	mountain	6	1	1.103725	1.103725	0	0	1	0	CommissionError	1.206730	0.602481	1	0	7.317647e+01
72.229271	1.279703	city	7	1	1.377473	1.377473	0	1	0	0	CorrectCommission	0.199109	0.581394	1	0	7.297059e+01
73.522179	1.306109	city	9	1	1.267649	1.267649	0	1	0	0	CorrectCommission	0.364893	0.557276	1	0	7.276471e+01
74.828445	1.306425	city	2	1	1.162635	1.162635	0	1	0	0	CorrectCommission	0.904195	0.531688	1	0	7.255882e+01
76.121353	1.279390	city	8	1	1.350072	1.350072	0	1	0	0	CorrectCommission	0.058388	0.506238	1	0	7.235294e+01
77.400833	1.279575	city	6	1	1.241370	1.241370	0	1	0	0	CorrectCommission	0.499853	0.482481	1	0	7.214706e+01
78.680489	1.279734	city	4	1	1.232053	1.232053	0	1	0	0	CorrectCommission	0.547698	0.461757	1	0	7.194118e+01
79.960152	1.279586	city	1	1	1.337400	1.337400	0	1	0	0	CorrectCommission	0.006688	0.445150	1	0	7.173529e+01
81.246422	1.292956	city	7	1	1.528578	1.528578	0	1	0	0	CorrectCommission	0.975108	0.433433	1	0	7.152941e+01
82.539246	1.292697	city	2	1	1.326249	1.326249	0	1	0	0	CorrectCommission	0.063955	0.427006	1	0	7.132353e+01
83.825478	1.279767	city	10	1	1.396436	1.396436	0	1	0	0	CorrectCommission	0.296492	0.425941	1	0	7.111765e+01
85.105141	1.279555	city	8	1	1.391758	1.391758	0	1	0	0	CorrectCommission	0.272468	0.429912	1	0	7.091176e+01
86.384636	1.279429	city	7	1	1.302035	1.302035	0	1	0	0	CorrectCommission	0.188306	0.438279	1	0	7.070588e+01
87.664169	1.279639	city	5	1	1.403428	1.403428	0	1	0	0	CorrectCommission	0.332398	0.450069	1	0	7.050000e+01
88.943764	1.279560	city	7	1	1.452607	1.452607	0	1	0	0	CorrectCommission	0.584956	0.464079	1	0	7.029412e+01
90.230072	1.293048	city	1	1	1.198787	1.198787	0	1	0	0	CorrectCommission	0.718537	0.478981	1	0	7.008824e+01
91.516289	1.279388	mountain	5	0	0.000000	1.280344	1	0	0	0	CorrectOmission	0.299701	0.493446	1	0	6.988235e+01
92.795807	1.279645	city	6	1	1.347780	1.347780	0	1	0	0	CorrectCommission	0.046617	0.506327	1	0	6.967647e+01
94.088722	1.306188	city	1	1	1.051598	1.051598	0	1	0	0	CorrectCommission	1.474428	0.516766	1	0	6.947059e+01
95.381599	1.279571	city	9	1	1.284664	1.284664	0	1	0	0	CorrectCommission	0.277517	0.524241	1	0	6.926471e+01
96.661179	1.279590	city	1	1	1.092029	1.092029	0	1	0	0	CorrectCommission	1.266795	0.528745	1	0	6.905882e+01
97.960793	1.319637	city	7	1	1.283020	1.283020	0	1	0	0	CorrectCommission	0.285959	0.530664	1	0	6.885294e+01
99.260437	1.279649	city	2	1	1.234909	1.234909	0	1	0	0	CorrectCommission	0.533032	0.530727	1	0	6.864706e+01
100.539978	1.279432	city	6	1	1.287997	1.287997	0	1	0	0	CorrectCommission	0.260397	0.529862	1	0	6.844118e+01
101.819557	1.279725	city	2	1	1.232185	1.232185	0	1	0	0	CorrectCommission	0.547020	0.529028	1	0	6.823529e+01
103.112549	1.306255	city	3	1	1.262545	1.262545	0	1	0	0	CorrectCommission	0.391106	0.529026	1	0	6.802941e+01
104.412041	1.292736	city	1	1	1.207943	1.207943	0	1	0	0	CorrectCommission	0.671515	0.530408	1	0	6.782353e+01
105.698158	1.279504	city	6	1	1.290285	1.290285	0	1	0	0	CorrectCommission	0.248646	0.533360	1	0	6.761765e+01
106.991142	1.306464	city	5	1	1.378109	1.378109	0	1	0	0	CorrectCommission	0.202374	0.537745	1	0	6.741176e+01
108.284096	1.279440	city	9	1	1.294987	1.294987	0	1	0	0	CorrectCommission	0.224503	0.543186	1	0	6.720588e+01
108.923820	9.903526	break	0	0	0.000000	1.502610	0	0	0	0	ThoughtProbe	0.841751	0.549163	1	67	67
119.467148	1.279607	city	4	1	1.661500	1.661500	0	1	0	0	CorrectCommission	1.657729	0.555227	1	0	6.647500e+01
120.746689	1.279482	city	9	1	1.432174	1.432174	0	1	0	0	CorrectCommission	0.480024	0.561145	1	0	6.595000e+01
122.046196	1.319523	city	5	1	1.334645	1.334645	0	1	0	0	CorrectCommission	0.020837	0.567089	1	0	6.542500e+01
123.345779	1.279643	city	6	1	1.460325	1.460325	0	1	0	0	CorrectCommission	0.624596	0.573605	1	0	6.490000e+01
124.632103	1.293017	city	4	1	1.330085	1.330085	0	1	0	0	CorrectCommission	0.044252	0.581611	1	0	6.437500e+01
125.938377	1.319528	city	10	1	1.066043	1.066043	0	1	0	0	CorrectCommission	1.400243	0.592307	1	0	6.385000e+01
127.237900	1.279513	city	8	1	1.193505	1.193505	0	1	0	0	CorrectCommission	0.745665	0.606924	1	0	6.332500e+01
128.524139	1.292966	mountain	5	0	0.000000	1.317262	1	0	0	0	CorrectOmission	0.110105	0.626566	1	0	6.280000e+01
129.810410	1.279588	city	3	1	1.425861	1.425861	0	1	0	0	CorrectCommission	0.447602	0.651924	1	0	6.227500e+01
131.109924	1.319422	city	2	1	1.507843	1.507843	0	1	0	0	CorrectCommission	0.868622	0.682981	1	0	6.175000e+01
132.416077	1.292889	city	3	1	1.359027	1.359027	0	1	0	0	CorrectCommission	0.104379	0.718909	0	0	6.122500e+01
133.722397	1.319744	city	2	1	1.291054	1.291054	0	1	0	0	CorrectCommission	0.244698	0.757990	0	0	6.070000e+01
135.021973	1.279426	mountain	5	0	0.000000	1.248838	1	0	0	0	CorrectOmission	0.461498	0.797701	0	0	6.017500e+01
136.308136	1.292897	city	9	1	1.192896	1.192896	0	1	0	0	CorrectCommission	0.748792	0.834952	0	0	5.965000e+01
137.594376	1.279571	city	3	1	1.083742	1.083742	0	1	0	0	CorrectCommission	1.309350	0.866428	0	0	5.912500e+01
138.900681	1.333056	city	1	1	1.064848	1.064848	0	1	0	0	CorrectCommission	1.406384	0.889039	0	0	5.860000e+01
140.213684	1.292948	city	10	1	0.990185	0.990185	0	1	0	0	CorrectCommission	1.789813	0.900354	0	0	5.807500e+01
141.506577	1.292824	mountain	8	1	0.926064	0.926064	0	0	1	0	CommissionError	2.119108	0.898926	0	0	5.755000e+01
142.792801	1.279617	city	1	1	1.522943	1.522943	0	1	0	0	CorrectCommission	0.946170	0.884510	0	0	5.702500e+01
144.085739	1.306265	city	6	1	1.420474	1.420474	0	1	0	0	CorrectCommission	0.419940	0.858104	0	0	5.650000e+01
145.378571	1.279388	city	8	1	1.242003	1.242003	0	1	0	0	CorrectCommission	0.496600	0.821811	0	0	5.597500e+01
146.664795	1.293073	city	10	1	1.083776	1.083776	0	1	0	0	CorrectCommission	1.309175	0.778616	0	0	5.545000e+01
147.951126	1.279602	city	4	1	1.405540	1.405540	0	1	0	0	CorrectCommission	0.343245	0.732011	0	0	5.492500e+01
149.230637	1.279395	city	5	1	1.192581	1.192581	0	1	0	0	CorrectCommission	0.750407	0.685791	1	0	5.440000e+01
150.510132	1.279617	city	6	1	1.459237	1.459237	0	1	0	0	CorrectCommission	0.619005	0.643663	1	0	5.387500e+01
151.809753	1.319632	city	10	1	1.263839	1.263839	0	1	0	0	CorrectCommission	0.384460	0.609008	1	0	5.335000e+01
153.109329	1.279499	city	4	1	1.316471	1.316471	0	1	0	0	CorrectCommission	0.114172	0.584666	1	0	5.282500e+01
154.422180	1.346199	city	5	1	1.232985	1.232985	0	1	0	0	CorrectCommission	0.542913	0.572731	1	0	5.230000e+01
155.735153	1.279763	city	6	1	1.425618	1.425618	0	1	0	0	CorrectCommission	0.446355	0.574416	1	0	5.177500e+01
157.054825	1.359571	city	2	1	1.313388	1.313388	0	1	0	0	CorrectCommission	0.130001	0.589956	1	0	5.125000e+01
158.374374	1.279541	city	7	1	1.315173	1.315173	0	1	0	0	CorrectCommission	0.120835	0.618534	1	0	5.072500e+01
159.680603	1.332912	city	1	1	1.415629	1.415629	0	1	0	0	CorrectCommission	0.395059	0.658260	1	0	5.020000e+01
161.006851	1.319567	city	8	1	1.543123	1.543123	0	1	0	0	CorrectCommission	1.049802	0.706266	1	0	4.967500e+01
162.306412	1.279560	city	3	1	1.319495	1.319495	0	1	0	0	CorrectCommission	0.098642	0.758863	0	0	4.915000e+01
163.605896	1.319402	city	6	1	1.214643	1.214643	0	1	0	0	CorrectCommission	0.637108	0.811831	0	0	4.862500e+01
164.912140	1.293097	city	9	1	1.149518	1.149518	0	1	0	0	CorrectCommission	0.971560	0.860721	0	0	4.810000e+01
166.218460	1.319538	city	2	1	1.059104	1.059104	0	1	0	0	CorrectCommission	1.435881	0.901292	0	0	4.757500e+01
167.531342	1.306238	city	9	1	0.991429	0.991429	0	1	0	0	CorrectCommission	1.783424	0.929934	0	0	4.705000e+01
168.830933	1.292932	city	6	1	1.150201	1.150201	0	1	0	0	CorrectCommission	0.968049	0.944050	0	0	4.652500e+01
169.477402	11.356096	break	0	0	0.000000	1.587341	0	0	0	0	ThoughtProbe	1.276886	0.942357	0	46	46
181.473358	1.279747	city	7	1	1.846812	1.846812	0	1	0	0	CorrectCommission	2.609400	0.924997	0	0	4.617647e+01
182.759628	1.292765	city	4	1	1.472577	1.472577	0	1	0	0	CorrectCommission	0.687512	0.893476	0	0	4.635294e+01
184.052475	1.292954	city	3	1	1.191175	1.191175	0	1	0	0	CorrectCommission	0.757628	0.850526	0	0	4.652941e+01
185.338791	1.279671	city	9	1	1.229247	1.229247	0	1	0	0	CorrectCommission	0.562109	0.799658	0	0	4.670588e+01
186.625076	1.292903	city	3	1	1.201613	1.201613	0	1	0	0	CorrectCommission	0.704023	0.744820	0	0	4.688235e+01
187.911240	1.279409	city	5	1	1.313301	1.313301	0	1	0	0	CorrectCommission	0.130451	0.689935	1	0	4.705882e+01
189.197403	1.292910	mountain	9	0	0.000000	1.428043	1	0	0	0	CorrectOmission	0.458809	0.638529	1	0	4.723529e+01
190.483658	1.279600	city	5	1	1.475103	1.475103	0	1	0	0	CorrectCommission	0.700486	0.593444	1	0	4.741176e+01
191.769897	1.292894	city	6	1	1.383744	1.383744	0	1	0	0	CorrectCommission	0.231310	0.556679	1	0	4.758824e+01
193.069473	1.306262	city	9	1	1.271075	1.271075	0	1	0	0	CorrectCommission	0.347301	0.529332	1	0	4.776471e+01
194.369049	1.292895	city	6	1	1.298789	1.298789	0	1	0	0	CorrectCommission	0.204976	0.511637	1	0	4.794118e+01
195.655350	1.279712	city	7	1	1.403928	1.403928	0	1	0	0	CorrectCommission	0.334967	0.503118	1	0	4.811765e+01
196.935013	1.279606	mountain	9	0	0.000000	1.462352	1	0	0	0	CorrectOmission	0.635005	0.502710	1	0	4.829412e+01
198.227921	1.306214	city	9	1	1.420778	1.420778	0	1	0	0	CorrectCommission	0.421502	0.508967	1	0	4.847059e+01
199.527481	1.292902	city	7	1	1.225923	1.225923	0	1	0	0	CorrectCommission	0.579178	0.520245	1	0	4.864706e+01
200.820312	1.292756	city	9	1	1.245574	1.245574	0	1	0	0	CorrectCommission	0.478263	0.534887	1	0	4.882353e+01
202.113052	1.292738	city	2	1	1.257403	1.257403	0	1	0	0	CorrectCommission	0.417515	0.551309	1	0	49
203.399323	1.279774	city	4	1	1.389907	1.389907	0	1	0	0	CorrectCommission	0.262960	0.568245	1	0	4.917647e+01
204.699066	1.319722	city	8	1	1.172645	1.172645	0	1	0	0	CorrectCommission	0.852789	0.584776	1	0	4.935294e+01
206.005280	1.292723	city	3	1	1.112379	1.112379	0	1	0	0	CorrectCommission	1.162286	0.600441	1	0	4.952941e+01
207.291519	1.279740	city	9	1	1.129804	1.129804	0	1	0	0	CorrectCommission	1.072799	0.615326	1	0	4.970588e+01
208.571106	1.279437	city	7	1	1.321203	1.321203	0	1	0	0	CorrectCommission	0.089867	0.630148	1	0	4.988235e+01
209.863953	1.306266	city	3	1	1.257832	1.257832	0	1	0	0	CorrectCommission	0.415311	0.646187	1	0	5.005882e+01
211.183517	1.332845	city	8	1	1.216306	1.216306	0	1	0	0	CorrectCommission	0.628570	0.665253	1	0	5.023529e+01
212.489761	1.279658	city	3	1	1.138890	1.138890	0	1	0	0	CorrectCommission	1.026140	0.689557	1	0	5.041176e+01
213.776016	1.292854	city	2	1	1.368378	1.368378	0	1	0	0	CorrectCommission	0.152397	0.721500	0	0	5.058824e+01
215.062286	1.279693	city	6	1	1.508060	1.508060	0	1	0	0	CorrectCommission	0.869738	0.763400	0	0	5.076471e+01
216.355240	1.306196	city	4	1	1.514601	1.514601	0	1	0	0	CorrectCommission	0.903328	0.817118	0	0	5.094118e+01
217.681412	1.346145	city	6	1	1.438354	1.438354	0	1	0	0	CorrectCommission	0.511763	0.883725	0	0	5.111765e+01
219.014343	1.319726	city	9	1	1.228341	1.228341	0	1	0	0	CorrectCommission	0.566764	0.963138	0	0	5.129412e+01
220.320572	1.292730	city	10	1	1.134764	1.134764	0	1	0	0	CorrectCommission	1.047329	1.053859	0	0	5.147059e+01
221.606812	1.279739	city	4	1	1.338506	1.338506	0	1	0	0	CorrectCommission	0.001011	1.152844	0	0	5.164706e+01
222.899826	1.306292	city	10	1	1.273289	1.273289	0	1	0	0	CorrectCommission	0.335931	1.255633	0	0	5.182353e+01
223.552963	9.770039	break	0	0	0.000000	1.575149	0	0	0	0	ThoughtProbe	1.214276	1.356621	0	52	52
233.962814	1.279606	city	10	1	1.774736	1.774736	0	1	0	0	CorrectCommission	2.239254	1.449592	0	0	5.170000e+01
235.255676	1.306119	city	6	1	1.402697	1.402697	0	1	0	0	CorrectCommission	0.328647	1.528458	0	0	5.140000e+01
236.561874	1.306288	mountain	1	1	2.254939	2.254939	0	0	1	0	CommissionError	4.705343	1.588038	0	0	5.110000e+01
237.874832	1.319634	city	4	1	0.642820	0.642820	0	1	0	0	CorrectCommission	3.573712	1.624489	0	0	5.080000e+01
239.174454	1.279600	mountain	2	0	0.000000	0.765150	1	0	0	0	CorrectOmission	2.945486	1.635937	0	0	5.050000e+01
240.460617	1.292729	city	6	1	1.499919	1.499919	0	1	0	0	CorrectCommission	0.827927	1.622479	0	0	5.020000e+01
241.766785	1.319592	city	7	1	1.725116	1.725116	0	1	0	0	CorrectCommission	1.984432	1.586028	0	0	4.990000e+01
243.073105	1.293065	city	4	1	1.474626	1.474626	0	1	0	0	CorrectCommission	0.698036	1.529819	0	0	4.960000e+01
244.366089	1.292907	city	7	1	1.382973	1.382973	0	1	0	0	CorrectCommission	0.227351	1.458018	0	0	4.930000e+01
245.665649	1.306210	city	3	1	1.592359	1.592359	0	1	0	0	CorrectCommission	1.302657	1.375181	0	0	49
246.958542	1.279582	city	7	1	1.776782	1.776782	0	1	0	0	CorrectCommission	2.249764	1.285813	0	0	4.870000e+01
248.238129	1.279576	city	10	1	1.716923	1.716923	0	1	0	0	CorrectCommission	1.942354	1.194111	0	0	4.840000e+01
249.517639	1.279453	city	1	1	1.621098	1.621098	0	1	0	0	CorrectCommission	1.450246	1.103799	0	0	4.810000e+01
250.797256	1.279774	city	6	1	1.563504	1.563504	0	1	0	0	CorrectCommission	1.154471	1.018022	0	0	4.780000e+01
252.076904	1.279525	city	4	1	1.365481	1.365481	0	1	0	0	CorrectCommission	0.137520	0.939216	0	0	4.750000e+01
253.356461	1.279588	city	3	1	1.318198	1.318198	0	1	0	0	CorrectCommission	0.105300	0.869061	0	0	4.720000e+01
254.649292	1.306078	city	2	1	1.364827	1.364827	0	1	0	0	CorrectCommission	0.134164	0.808400	0	0	4.690000e+01
255.968872	1.333073	city	6	1	1.449346	1.449346	0	1	0	0	CorrectCommission	0.568213	0.757275	0	0	4.660000e+01
257.301758	1.332688	city	2	1	1.169268	1.169268	0	1	0	0	CorrectCommission	0.870130	0.714976	0	0	4.630000e+01
258.614563	1.292926	city	7	1	1.338594	1.338594	0	1	0	0	CorrectCommission	0.000558	0.680267	1	0	46
259.914215	1.306404	city	6	1	1.499871	1.499871	0	1	0	0	CorrectCommission	0.827681	0.651658	1	0	4.570000e+01
261.220551	1.306240	city	8	1	1.054456	1.054456	0	1	0	0	CorrectCommission	1.459751	0.627631	1	0	4.540000e+01
262.533447	1.319541	city	3	1	1.157353	1.157353	0	1	0	0	CorrectCommission	0.931320	0.606923	1	0	4.510000e+01
263.839569	1.292746	city	9	1	1.255632	1.255632	0	1	0	0	CorrectCommission	0.426608	0.588765	1	0	4.480000e+01
265.172394	1.372895	city	8	1	1.203969	1.203969	0	1	0	0	CorrectCommission	0.691925	0.572892	1	0	4.450000e+01
266.498688	1.279656	city	10	1	1.194877	1.194877	0	1	0	0	CorrectCommission	0.738617	0.559556	1	0	4.420000e+01
267.778259	1.279511	city	1	1	1.322836	1.322836	0	1	0	0	CorrectCommission	0.081481	0.549400	1	0	4.390000e+01
269.077820	1.319594	city	8	1	1.355229	1.355229	0	1	0	0	CorrectCommission	0.084873	0.543336	1	0	4.360000e+01
270.377380	1.279539	city	10	1	1.356479	1.356479	0	1	0	0	CorrectCommission	0.091290	0.542283	1	0	4.330000e+01
271.683685	1.333085	city	8	1	1.194938	1.194938	0	1	0	0	CorrectCommission	0.738305	0.547033	1	0	43
272.989929	1.279398	mountain	9	0	0.000000	1.266299	1	0	0	0	CorrectOmission	0.371826	0.558111	1	0	4.270000e+01
274.276062	1.292887	city	5	1	1.421858	1.421858	0	1	0	0	CorrectCommission	0.427044	0.575734	1	0	4.240000e+01
275.562378	1.279725	city	3	1	1.512906	1.512906	0	1	0	0	CorrectCommission	0.894625	0.599711	1	0	4.210000e+01
276.855286	1.306092	city	6	1	1.548787	1.548787	0	1	0	0	CorrectCommission	1.078891	0.629448	1	0	4.180000e+01
278.168213	1.319730	city	10	1	1.225638	1.225638	0	1	0	0	CorrectCommission	0.580641	0.663916	1	0	4.150000e+01
279.474518	1.292906	city	2	1	1.379398	1.379398	0	1	0	0	CorrectCommission	0.208992	0.701630	1	0	4.120000e+01
280.781372	1.320834	city	4	1	1.455370	1.455370	0	1	0	0	CorrectCommission	0.599146	0.740647	0	0	4.090000e+01
282.094299	1.304969	city	2	1	1.320205	1.320205	0	1	0	0	CorrectCommission	0.094992	0.778615	0	0	4.060000e+01
283.386536	1.279495	city	1	1	1.363749	1.363749	0	1	0	0	CorrectCommission	0.128629	0.812922	0	0	4.030000e+01
288.011597	7.970653	break	0	0	0.000000	1.571918	0	0	0	0	ThoughtProbe	1.197679	0.840915	0	40	40
292.643433	1.293052	city	1	1	1.767269	1.767269	0	1	0	0	CorrectCommission	2.200910	0.860180	0	0	3.989130e+01
293.949768	1.319561	city	6	1	1.772364	1.772364	0	1	0	0	CorrectCommission	2.227074	0.868880	0	0	3.978261e+01
295.255981	1.292913	city	2	0	0.000000	1.415332	0	0	0	1	OmissionError	0.393534	0.865987	0	0	3.967391e+01
296.562225	1.319563	city	4	1	1.070928	1.070928	0	1	0	0	CorrectCommission	1.375156	0.851468	0	0	3.956522e+01
297.861816	1.279604	mountain	4	0	0.000000	1.113906	1	0	0	0	CorrectOmission	1.154445	0.826218	0	0	3.945652e+01
299.147980	1.292727	city	1	1	1.308336	1.308336	0	1	0	0	CorrectCommission	0.155946	0.792027	0	0	3.934783e+01
300.440887	1.293067	city	4	1	1.418290	1.418290	0	1	0	0	CorrectCommission	0.408725	0.751329	0	0	3.923913e+01
301.747101	1.319403	city	8	1	1.088440	1.088440	0	1	0	0	CorrectCommission	1.285226	0.706883	1	0	3.913043e+01
303.046661	1.279724	city	1	1	1.234530	1.234530	0	1	0	0	CorrectCommission	0.534978	0.661525	1	0	3.902174e+01
304.346252	1.319429	city	9	1	1.325295	1.325295	0	1	0	0	CorrectCommission	0.068854	0.617928	1	0	3.891304e+01
305.652466	1.292973	city	6	1	1.154472	1.154472	0	1	0	0	CorrectCommission	0.946117	0.578361	1	0	3.880435e+01
306.952057	1.306239	city	10	1	1.257846	1.257846	0	1	0	0	CorrectCommission	0.415237	0.544508	1	0	3.869565e+01
308.251617	1.292858	city	6	1	1.435816	1.435816	0	1	0	0	CorrectCommission	0.498726	0.517461	1	0	3.858696e+01
309.597778	1.399515	city	10	1	1.347777	1.347777	0	1	0	0	CorrectCommission	0.046603	0.497622	1	0	3.847826e+01
310.944092	1.293067	mountain	6	0	0.000000	1.359190	1	0	0	0	CorrectOmission	0.105216	0.484788	1	0	3.836957e+01
312.230408	1.279580	city	3	1	1.335413	1.335413	0	1	0	0	CorrectCommission	0.016890	0.478232	1	0	3.826087e+01
313.536652	1.332919	city	10	1	1.141804	1.141804	0	1	0	0	CorrectCommission	1.011172	0.476849	1	0	3.815217e+01
314.842865	1.279479	city	4	1	1.301356	1.301356	0	1	0	0	CorrectCommission	0.191794	0.479371	1	0	3.804348e+01
316.155670	1.346148	city	10	1	1.243955	1.243955	0	1	0	0	CorrectCommission	0.486577	0.484630	1	0	3.793478e+01
317.468536	1.279565	mountain	9	0	0.000000	1.155443	1	0	0	0	CorrectOmission	0.941128	0.491709	1	0	3.782609e+01
318.754761	1.292932	city	4	1	1.141127	1.141127	0	1	0	0	CorrectCommission	1.014650	0.500112	1	0	3.771739e+01
320.041016	1.279581	city	9	1	1.306311	1.306311	0	1	0	0	CorrectCommission	0.166347	0.509836	1	0	3.760870e+01
321.327362	1.293056	city	3	1	1.391050	1.391050	0	1	0	0	CorrectCommission	0.268831	0.521317	1	0	3.750000e+01
322.646912	1.346055	city	8	1	1.258933	1.258933	0	1	0	0	CorrectCommission	0.409655	0.535301	1	0	3.739130e+01
323.973145	1.306411	city	1	1	1.190919	1.190919	0	1	0	0	CorrectCommission	0.758945	0.552662	1	0	3.728261e+01
325.279449	1.306222	city	8	1	1.485809	1.485809	0	1	0	0	CorrectCommission	0.755469	0.574093	1	0	3.717391e+01
326.585693	1.306278	city	1	1	1.314778	1.314778	0	1	0	0	CorrectCommission	0.122865	0.599913	1	0	3.706522e+01
327.891876	1.306057	city	10	1	1.218788	1.218788	0	1	0	0	CorrectCommission	0.615821	0.629885	1	0	3.695652e+01
329.184753	1.279715	city	4	1	1.420429	1.420429	0	1	0	0	CorrectCommission	0.419706	0.663040	1	0	3.684783e+01
330.477722	1.306242	city	9	1	1.321480	1.321480	0	1	0	0	CorrectCommission	0.088443	0.697745	1	0	3.673913e+01
331.777313	1.292908	city	8	1	1.365697	1.365697	0	1	0	0	CorrectCommission	0.138630	0.731912	0	0	3.663043e+01
333.070251	1.292949	city	9	1	1.539646	1.539646	0	1	0	0	CorrectCommission	1.031949	0.763310	0	0	3.652174e+01
334.369781	1.306127	city	5	1	1.500915	1.500915	0	1	0	0	CorrectCommission	0.833046	0.789934	0	0	3.641304e+01
335.662689	1.279673	mountain	2	0	0.000000	1.750086	1	0	0	0	CorrectOmission	2.112667	0.810437	0	0	3.630435e+01
336.948883	1.292734	city	2	1	1.871366	1.871366	0	1	0	0	CorrectCommission	2.735500	0.824344	0	0	3.619565e+01
338.255035	1.319586	city	6	1	1.448961	1.448961	0	1	0	0	CorrectCommission	0.566237	0.832185	0	0	3.608696e+01
339.561279	1.292873	city	1	1	1.390112	1.390112	0	1	0	0	CorrectCommission	0.264015	0.835391	0	0	3.597826e+01
340.874268	1.333131	city	4	1	1.450287	1.450287	0	1	0	0	CorrectCommission	0.573043	0.835855	0	0	3.586957e+01
342.207153	1.332655	city	2	1	1.287967	1.287967	0	1	0	0	CorrectCommission	0.260552	0.835497	0	0	3.576087e+01
343.526672	1.306348	city	9	1	1.262525	1.262525	0	1	0	0	CorrectCommission	0.391209	0.835833	0	0	3.565217e+01
344.826324	1.292983	city	1	1	1.140476	1.140476	0	1	0	0	CorrectCommission	1.017994	0.837555	0	0	3.554348e+01
346.139191	1.332725	city	5	1	1.304959	1.304959	0	1	0	0	CorrectCommission	0.173288	0.840329	0	0	3.543478e+01
347.445435	1.279750	city	4	1	1.522124	1.522124	0	1	0	0	CorrectCommission	0.941961	0.842890	0	0	3.532609e+01
348.731659	1.292745	city	2	1	1.488017	1.488017	0	1	0	0	CorrectCommission	0.766804	0.843304	0	0	3.521739e+01
350.044495	1.332880	city	9	1	1.376677	1.376677	0	1	0	0	CorrectCommission	0.195019	0.839430	0	0	3.510870e+01
354.396393	7.370921	break	0	0	0.000000	1.649705	0	0	0	0	ThoughtProbe	1.597158	0.829483	0	35	35
358.721649	1.279635	city	6	1	1.891604	1.891604	0	1	0	0	CorrectCommission	2.839431	0.812420	0	0	3.482353e+01
360.021301	1.319642	city	2	1	1.686876	1.686876	0	1	0	0	CorrectCommission	1.788048	0.788316	0	0	3.464706e+01
361.347565	1.332903	city	9	1	1.445136	1.445136	0	1	0	0	CorrectCommission	0.546592	0.758494	0	0	3.447059e+01
362.660492	1.292914	city	4	1	1.351113	1.351113	0	1	0	0	CorrectCommission	0.063732	0.725288	0	0	3.429412e+01
363.953308	1.292742	city	3	1	1.325872	1.325872	0	1	0	0	CorrectCommission	0.065890	0.691628	1	0	3.411765e+01
365.246124	1.292912	city	10	1	1.267070	1.267070	0	1	0	0	CorrectCommission	0.367867	0.660578	1	0	3.394118e+01
366.545715	1.306243	city	7	1	1.317520	1.317520	0	1	0	0	CorrectCommission	0.108783	0.634772	1	0	3.376471e+01
367.851959	1.306256	city	6	1	1.363857	1.363857	0	1	0	0	CorrectCommission	0.129179	0.616034	1	0	3.358824e+01
369.171570	1.332925	mountain	8	0	0.000000	1.448274	1	0	0	0	CorrectOmission	0.562706	0.605136	1	0	3.341176e+01
370.477814	1.279582	city	4	1	1.482017	1.482017	0	1	0	0	CorrectCommission	0.735993	0.601764	1	0	3.323529e+01
371.777374	1.319555	city	1	1	1.376330	1.376330	0	1	0	0	CorrectCommission	0.193235	0.604706	1	0	3.305882e+01
373.110260	1.346198	city	10	1	1.245457	1.245457	0	1	0	0	CorrectCommission	0.478863	0.612177	1	0	3.288235e+01
374.449799	1.332870	city	6	1	1.088404	1.088404	0	1	0	0	CorrectCommission	1.285409	0.622156	1	0	3.270588e+01
375.782684	1.332895	city	8	1	1.086569	1.086569	0	1	0	0	CorrectCommission	1.294832	0.632695	1	0	3.252941e+01
377.095642	1.293066	mountain	2	0	0.000000	1.189857	1	0	0	0	CorrectOmission	0.764398	0.642272	1	0	3.235294e+01
378.388580	1.292798	city	1	1	1.354589	1.354589	0	1	0	0	CorrectCommission	0.081586	0.649954	1	0	3.217647e+01
379.674835	1.279689	city	6	1	1.537088	1.537088	0	1	0	0	CorrectCommission	1.018814	0.655393	1	0	32
380.967712	1.306098	city	1	1	1.341460	1.341460	0	1	0	0	CorrectCommission	0.014163	0.658813	1	0	3.182353e+01
382.280548	1.319569	city	9	1	1.608777	1.608777	0	1	0	0	CorrectCommission	1.386972	0.660987	1	0	3.164706e+01
383.600189	1.319720	city	10	1	1.271930	1.271930	0	1	0	0	CorrectCommission	0.342908	0.663047	1	0	3.147059e+01
384.926453	1.332772	city	8	1	1.274492	1.274492	0	1	0	0	CorrectCommission	0.329755	0.666463	1	0	3.129412e+01
386.239349	1.293010	city	1	1	1.189893	1.189893	0	1	0	0	CorrectCommission	0.764214	0.672826	1	0	3.111765e+01
387.532257	1.292863	city	6	1	1.129766	1.129766	0	1	0	0	CorrectCommission	1.072996	0.683732	1	0	3.094118e+01
388.818512	1.279630	city	7	1	1.368475	1.368475	0	1	0	0	CorrectCommission	0.152898	0.700640	1	0	3.076471e+01
390.098114	1.279585	city	4	1	1.613288	1.613288	0	1	0	0	CorrectCommission	1.410135	0.724698	0	0	3.058824e+01
391.437714	1.399568	city	5	1	1.283191	1.283191	0	1	0	0	CorrectCommission	0.285080	0.756417	0	0	3.041176e+01
392.783844	1.292709	city	10	1	1.248612	1.248612	0	1	0	0	CorrectCommission	0.462658	0.795541	0	0	3.023529e+01
394.103394	1.346410	city	9	1	1.293127	1.293127	0	1	0	0	CorrectCommission	0.234054	0.840786	0	0	3.005882e+01
395.423004	1.292794	city	10	1	1.236647	1.236647	0	1	0	0	CorrectCommission	0.524107	0.889799	0	0	2.988235e+01
396.709167	1.279563	city	9	1	1.603570	1.603570	0	1	0	0	CorrectCommission	1.360230	0.939207	0	0	2.970588e+01
398.048737	1.399526	city	7	1	1.369189	1.369189	0	1	0	0	CorrectCommission	0.156562	0.984856	0	0	2.952941e+01
399.394928	1.292862	city	1	1	1.129523	1.129523	0	1	0	0	CorrectCommission	1.074240	1.022300	0	0	2.935294e+01
400.701233	1.319759	city	8	1	1.246109	1.246109	0	1	0	0	CorrectCommission	0.475513	1.047313	0	0	2.917647e+01
404.993164	7.264105	break	0	0	0.000000	1.803972	0	0	0	0	ThoughtProbe	2.389396	1.056521	0	29	29
409.265076	1.279723	city	7	1	2.168843	2.168843	0	1	0	0	CorrectCommission	4.263193	1.047854	0	0	2.857500e+01
410.558044	1.306239	city	10	1	1.706453	1.706453	0	1	0	0	CorrectCommission	1.888586	1.020933	0	0	2.815000e+01
411.857574	1.292766	city	9	1	1.406796	1.406796	0	1	0	0	CorrectCommission	0.349696	0.977226	0	0	2.772500e+01
413.163788	1.319711	mountain	6	0	0.000000	1.407274	1	0	0	0	CorrectOmission	0.352152	0.919746	0	0	2.730000e+01
414.463440	1.279573	city	3	1	1.474844	1.474844	0	1	0	0	CorrectCommission	0.699158	0.852589	0	0	2.687500e+01
415.749695	1.292908	city	8	1	1.376463	1.376463	0	1	0	0	CorrectCommission	0.193920	0.780452	0	0	2.645000e+01
417.049194	1.306108	city	4	1	1.365056	1.365056	0	1	0	0	CorrectCommission	0.135340	0.708058	1	0	2.602500e+01
418.368774	1.333045	city	5	1	1.423523	1.423523	0	1	0	0	CorrectCommission	0.435595	0.639697	1	0	2.560000e+01
419.688324	1.306066	city	7	1	1.489607	1.489607	0	1	0	0	CorrectCommission	0.774974	0.578920	1	0	2.517500e+01
420.994476	1.306240	city	4	1	1.509983	1.509983	0	1	0	0	CorrectCommission	0.879613	0.528371	1	0	2.475000e+01
422.300781	1.306388	city	6	1	1.394424	1.394424	0	1	0	0	CorrectCommission	0.286161	0.489797	1	0	2.432500e+01
423.600403	1.292834	city	10	1	1.321448	1.321448	0	1	0	0	CorrectCommission	0.088612	0.464134	1	0	2.390000e+01
424.913208	1.332806	mountain	8	0	0.000000	1.355357	1	0	0	0	CorrectOmission	0.085532	0.451539	1	0	2.347500e+01
426.232819	1.306396	city	2	1	1.381436	1.381436	0	1	0	0	CorrectCommission	0.219460	0.451534	1	0	2.305000e+01
427.552490	1.332913	city	1	1	1.284966	1.284966	0	1	0	0	CorrectCommission	0.275964	0.463077	1	0	2.262500e+01
428.865387	1.292889	city	2	1	1.356449	1.356449	0	1	0	0	CorrectCommission	0.091136	0.484617	1	0	2.220000e+01
430.164978	1.306286	city	8	1	1.395773	1.395773	0	1	0	0	CorrectCommission	0.293088	0.514183	1	0	2.177500e+01
431.471191	1.306153	city	3	1	1.585515	1.585515	0	1	0	0	CorrectCommission	1.267506	0.549457	1	0	2.135000e+01
432.790680	1.332838	city	10	1	1.279060	1.279060	0	1	0	0	CorrectCommission	0.306292	0.587911	1	0	2.092500e+01
434.096954	1.279684	city	2	1	1.304769	1.304769	0	1	0	0	CorrectCommission	0.174264	0.626973	1	0	2.050000e+01
435.403229	1.332901	city	6	1	1.226999	1.226999	0	1	0	0	CorrectCommission	0.573651	0.664235	1	0	2.007500e+01
436.716064	1.292774	city	10	1	1.095309	1.095309	0	1	0	0	CorrectCommission	1.249947	0.697649	1	0	1.965000e+01
438.028961	1.333013	mountain	7	1	1.115033	1.115033	0	0	1	0	CommissionError	1.148657	0.725732	0	0	1.922500e+01
439.355194	1.319463	city	8	1	1.181227	1.181227	0	1	0	0	CorrectCommission	0.808718	0.747800	0	0	1.880000e+01
440.661407	1.292937	city	9	1	1.143967	1.143967	0	1	0	0	CorrectCommission	1.000064	0.764015	0	0	1.837500e+01
441.947693	1.279652	city	7	1	1.093416	1.093416	0	1	0	0	CorrectCommission	1.259670	0.775282	0	0	1.795000e+01
443.273987	1.372909	city	10	1	1.192968	1.192968	0	1	0	0	CorrectCommission	0.748420	0.783088	0	0	1.752500e+01
444.620209	1.319534	city	3	1	1.103510	1.103510	0	1	0	0	CorrectCommission	1.207832	0.789205	0	0	1.710000e+01
445.926331	1.292758	city	7	1	1.309771	1.309771	0	1	0	0	CorrectCommission	0.148575	0.795271	0	0	1.667500e+01
447.232513	1.319561	city	3	1	1.467123	1.467123	0	1	0	0	CorrectCommission	0.659503	0.802462	0	0	1.625000e+01
448.552063	1.319578	city	5	1	1.255047	1.255047	0	1	0	0	CorrectCommission	0.429611	0.811126	0	0	1.582500e+01
449.878387	1.333060	city	6	1	1.357822	1.357822	0	1	0	0	CorrectCommission	0.098187	0.820680	0	0	1.540000e+01
451.217957	1.346078	city	10	1	1.383814	1.383814	0	1	0	0	CorrectCommission	0.231672	0.829643	0	0	1.497500e+01
452.557495	1.333014	city	4	1	1.585029	1.585029	0	1	0	0	CorrectCommission	1.265013	0.835884	0	0	1.455000e+01
453.883789	1.319571	city	8	1	1.506373	1.506373	0	1	0	0	CorrectCommission	0.861075	0.837011	0	0	1.412500e+01
455.196716	1.306264	city	1	1	1.608852	1.608852	0	1	0	0	CorrectCommission	1.387354	0.830910	0	0	1.370000e+01
456.496277	1.292876	city	6	1	1.808346	1.808346	0	1	0	0	CorrectCommission	2.411861	0.816174	0	0	1.327500e+01
457.802521	1.319592	city	9	1	1.738028	1.738028	0	1	0	0	CorrectCommission	2.050742	0.792422	0	0	1.285000e+01
459.108765	1.292917	city	3	1	1.415692	1.415692	0	1	0	0	CorrectCommission	0.395380	0.760459	0	0	1.242500e+01
459.755249	8.717106	break	0	0	0.000000	1.305009	0	0	0	0	ThoughtProbe	0.173034	0.722154	0	12	12
469.118713	1.292741	city	5	1	1.298372	1.298372	0	1	0	0	CorrectCommission	0.207118	0.680131	1	0	1.217391e+01
470.404877	1.279614	city	4	1	1.288174	1.288174	0	1	0	0	CorrectCommission	0.259489	0.637418	1	0	1.234783e+01
471.691162	1.292908	city	8	1	1.295447	1.295447	0	1	0	0	CorrectCommission	0.222139	0.597084	1	0	1.252174e+01
472.984070	1.292908	city	10	1	1.245473	1.245473	0	1	0	0	CorrectCommission	0.478780	0.561861	1	0	1.269565e+01
474.270294	1.279566	city	9	1	1.284650	1.284650	0	1	0	0	CorrectCommission	0.277584	0.534003	1	0	1.286957e+01
475.549957	1.279742	city	10	1	1.506693	1.506693	0	1	0	0	CorrectCommission	0.862718	0.515216	1	0	1.304348e+01
476.829620	1.279583	mountain	10	1	1.457436	1.457436	0	0	1	0	CommissionError	0.609758	0.506668	1	0	1.321739e+01
478.115814	1.292808	city	4	1	1.295348	1.295348	0	1	0	0	CorrectCommission	0.222647	0.509096	1	0	1.339130e+01
479.401978	1.279528	city	1	1	1.282964	1.282964	0	1	0	0	CorrectCommission	0.286244	0.522865	1	0	1.356522e+01
480.681580	1.279711	city	5	1	1.284314	1.284314	0	1	0	0	CorrectCommission	0.279311	0.547979	1	0	1.373913e+01
481.967896	1.292922	city	3	1	1.485471	1.485471	0	1	0	0	CorrectCommission	0.753731	0.584060	1	0	1.391304e+01
483.254089	1.279407	city	9	1	1.282387	1.282387	0	1	0	0	CorrectCommission	0.289208	0.630258	1	0	1.408696e+01
484.533661	1.279748	mountain	3	0	0.000000	1.243677	1	0	0	0	CorrectOmission	0.488001	0.685174	1	0	1.426087e+01
485.813324	1.279584	city	7	1	1.288944	1.288944	0	1	0	0	CorrectCommission	0.255534	0.746747	0	0	1.443478e+01
487.092896	1.279585	city	6	1	1.337789	1.337789	0	1	0	0	CorrectCommission	0.004692	0.812273	0	0	1.460870e+01
488.372406	1.279411	city	7	1	1.083248	1.083248	0	1	0	0	CorrectCommission	1.311887	0.878460	0	0	1.478261e+01
489.651978	1.279762	city	3	1	1.045609	1.045609	0	1	0	0	CorrectCommission	1.505184	0.941596	0	0	1.495652e+01
490.931641	1.279558	city	9	1	1.035172	1.035172	0	1	0	0	CorrectCommission	1.558782	0.997882	0	0	1.513043e+01
492.211212	1.279550	city	4	1	1.101660	1.101660	0	1	0	0	CorrectCommission	1.217332	1.043708	0	0	1.530435e+01
493.490723	1.279518	mountain	6	0	0.000000	1.269657	1	0	0	0	CorrectOmission	0.354583	1.076053	0	0	1.547826e+01
494.770355	1.279701	city	7	1	1.559212	1.559212	0	1	0	0	CorrectCommission	1.132427	1.092830	0	0	1.565217e+01
496.049957	1.279547	city	4	1	1.990372	1.990372	0	1	0	0	CorrectCommission	3.346658	1.093075	0	0	1.582609e+01
497.329529	1.279559	city	8	0	0.000000	1.587408	0	0	0	1	OmissionError	1.277232	1.077131	0	0	16
498.609039	1.279488	city	6	1	1.071728	1.071728	0	1	0	0	CorrectCommission	1.371052	1.046661	0	0	1.617391e+01
499.888611	1.279668	mountain	3	0	0.000000	1.164739	1	0	0	0	CorrectOmission	0.893393	1.004433	0	0	1.634783e+01
501.168243	1.279579	city	3	1	1.460480	1.460480	0	1	0	0	CorrectCommission	0.625393	0.954074	0	0	1.652174e+01
502.447845	1.279603	city	2	1	1.552992	1.552992	0	1	0	0	CorrectCommission	1.100487	0.899697	0	0	1.669565e+01
503.727356	1.279438	city	6	1	1.400915	1.400915	0	1	0	0	CorrectCommission	0.319494	0.845475	0	0	1.686957e+01
505.006836	1.279533	city	3	1	1.496346	1.496346	0	1	0	0	CorrectCommission	0.809578	0.795309	0	0	1.704348e+01
506.293060	1.292922	city	5	1	1.352094	1.352094	0	1	0	0	CorrectCommission	0.068774	0.752454	0	0	1.721739e+01
507.586060	1.293047	city	7	1	1.467826	1.467826	0	1	0	0	CorrectCommission	0.663116	0.719273	0	0	1.739130e+01
508.872375	1.279592	city	1	1	1.497709	1.497709	0	1	0	0	CorrectCommission	0.816580	0.697139	1	0	1.756522e+01
510.151886	1.279463	city	5	1	1.403966	1.403966	0	1	0	0	CorrectCommission	0.335160	0.686346	1	0	1.773913e+01
511.431396	1.279535	city	9	1	1.284174	1.284174	0	1	0	0	CorrectCommission	0.280032	0.686184	1	0	1.791304e+01
512.717712	1.293063	city	10	1	1.244486	1.244486	0	1	0	0	CorrectCommission	0.483851	0.695002	1	0	1.808696e+01
514.003967	1.279443	city	9	1	1.240770	1.240770	0	1	0	0	CorrectCommission	0.502931	0.710378	0	0	1.826087e+01
515.283447	1.279588	city	10	1	1.091765	1.091765	0	1	0	0	CorrectCommission	1.268148	0.729380	0	0	1.843478e+01
516.563110	1.279686	city	6	1	1.453213	1.453213	0	1	0	0	CorrectCommission	0.588071	0.748773	0	0	1.860870e+01
517.842712	1.279535	city	10	1	1.236839	1.236839	0	1	0	0	CorrectCommission	0.523121	0.765401	0	0	1.878261e+01
519.122314	1.279644	city	5	1	1.469273	1.469273	0	1	0	0	CorrectCommission	0.670545	0.776464	0	0	1.895652e+01
520.401917	1.279583	city	8	1	1.441626	1.441626	0	1	0	0	CorrectCommission	0.528563	0.779828	0	0	1.913043e+01
521.681519	1.279609	city	5	1	1.977527	1.977527	0	1	0	0	CorrectCommission	3.280688	0.774311	0	0	1.930435e+01
522.960999	1.279398	city	4	1	1.441782	1.441782	0	1	0	0	CorrectCommission	0.529365	0.759765	0	0	1.947826e+01
524.240540	1.279597	city	10	1	1.444653	1.444653	0	1	0	0	CorrectCommission	0.544111	0.737218	0	0	1.965217e+01
525.526855	1.293068	city	4	1	1.457589	1.457589	0	1	0	0	CorrectCommission	0.610544	0.708698	0	0	1.982609e+01
526.173401	8.957016	break	0	0	0.000000	1.470525	0	0	0	0	ThoughtProbe	0.676978	0.676978	1	20	20
