onset	duration	trial_type	image_type	Press	ReactionTime	ReactionTime_Interpolated	CorrectOmission	CorrectCommission	CommissionError	OmissionError	response_type	nonsmoothVarianceTimeCourse	VarianceTimeCourse	In_the_Zone	ThoughtProbe	ThoughtProbe_Interpolated
0.651786	1.279586	mountain	8	0	0.000000	1.757185	1	0	0	0	CorrectOmission	2.956705	2.956705	0	0	55
1.931369	1.279579	city	7	1	1.442246	1.442246	0	1	0	0	CorrectCommission	1.513956	2.622429	0	0	55
3.210949	1.279582	city	8	1	1.127307	1.127307	0	1	0	0	CorrectCommission	0.071207	2.300426	0	0	55
4.490531	1.279581	city	2	1	1.021548	1.021548	0	1	0	0	CorrectCommission	0.413278	2.001646	0	0	55
5.770099	1.279554	city	1	1	0.998224	0.998224	0	1	0	0	CorrectCommission	0.520129	1.734607	0	0	55
7.049661	1.279571	mountain	4	0	0.000000	0.990344	1	0	0	0	CorrectOmission	0.556225	1.504750	0	0	55
8.329248	1.279604	city	4	1	0.974602	0.974602	0	1	0	0	CorrectCommission	0.628339	1.314264	0	0	55
9.608844	1.279587	city	1	1	0.927690	0.927690	0	1	0	0	CorrectCommission	0.843245	1.162384	0	0	55
10.888360	1.279446	city	3	1	0.857752	0.857752	0	1	0	0	CorrectCommission	1.163635	1.046043	0	0	55
12.167926	1.279686	city	2	1	0.912307	0.912307	0	1	0	0	CorrectCommission	0.913715	0.960745	0	0	55
13.447573	1.279607	city	6	1	0.931749	0.931749	0	1	0	0	CorrectCommission	0.824651	0.901450	0	0	55
14.727151	1.279550	city	7	1	0.962329	0.962329	0	1	0	0	CorrectCommission	0.684565	0.863300	0	0	55
16.013382	1.292912	city	6	1	0.850030	0.850030	0	1	0	0	CorrectCommission	1.199008	0.842148	0	0	55
17.299625	1.279577	city	5	1	0.822540	0.822540	0	1	0	0	CorrectCommission	1.324944	0.834734	0	0	55
18.579216	1.279601	city	6	1	1.015661	1.015661	0	1	0	0	CorrectCommission	0.440245	0.838681	0	0	55
19.858795	1.279557	mountain	10	0	0.000000	1.027111	1	0	0	0	CorrectOmission	0.387792	0.852252	0	0	55
21.138294	1.279442	city	1	1	1.015767	1.015767	0	1	0	0	CorrectCommission	0.439761	0.874006	0	0	55
22.417795	1.279561	city	7	1	1.140506	1.140506	0	1	0	0	CorrectCommission	0.131675	0.902507	0	0	55
23.697443	1.279736	city	4	1	1.016204	1.016204	0	1	0	0	CorrectCommission	0.437760	0.936178	0	0	55
24.977127	1.279631	city	9	1	0.909032	0.909032	0	1	0	0	CorrectCommission	0.928718	0.973216	0	0	55
26.256647	1.279411	city	4	1	0.753682	0.753682	0	1	0	0	CorrectCommission	1.640386	1.011686	0	0	55
27.536201	1.279696	city	10	1	0.749299	0.749299	0	1	0	0	CorrectCommission	1.660463	1.049772	0	0	55
28.815849	1.279598	city	6	1	0.754886	0.754886	0	1	0	0	CorrectCommission	1.634867	1.086041	0	0	55
30.095428	1.279561	city	8	1	0.766247	0.766247	0	1	0	0	CorrectCommission	1.582825	1.119521	0	0	55
31.374969	1.279522	mountain	9	0	0.000000	0.854476	1	0	0	0	CorrectOmission	1.178643	1.149782	0	0	55
32.654556	1.279655	city	10	1	0.931459	0.931459	0	1	0	0	CorrectCommission	0.825982	1.176862	0	0	55
33.934170	1.279568	city	9	1	0.909080	0.909080	0	1	0	0	CorrectCommission	0.928498	1.201003	0	0	55
35.213737	1.279565	city	5	1	0.908765	0.908765	0	1	0	0	CorrectCommission	0.929943	1.222477	0	0	55
36.493313	1.279585	city	1	1	0.969837	0.969837	0	1	0	0	CorrectCommission	0.650170	1.241389	0	0	55
37.786221	1.306236	city	2	1	0.920937	0.920937	0	1	0	0	CorrectCommission	0.874181	1.257579	0	0	55
39.085793	1.292906	city	6	1	0.785225	0.785225	0	1	0	0	CorrectCommission	1.495887	1.270617	0	0	55
40.385376	1.306258	city	5	1	0.540624	0.540624	0	1	0	0	CorrectCommission	2.616411	1.279891	0	0	55
41.678291	1.279577	city	10	1	1.528237	1.528237	0	1	0	0	CorrectCommission	1.907885	1.284740	0	0	55
42.957870	1.279577	city	5	1	1.442521	1.442521	0	1	0	0	CorrectCommission	1.515215	1.284635	0	0	55
44.237457	1.279602	city	4	1	1.293636	1.293636	0	1	0	0	CorrectCommission	0.833167	1.279168	0	0	55
45.516964	1.279405	city	7	1	0.963249	0.963249	0	1	0	0	CorrectCommission	0.680349	1.268122	0	0	55
46.796524	1.279718	city	1	1	1.015808	1.015808	0	1	0	0	CorrectCommission	0.439576	1.251472	0	0	55
48.076180	1.279597	city	9	1	1.635438	1.635438	0	1	0	0	CorrectCommission	2.398979	1.229386	0	0	55
49.355759	1.279558	city	5	1	1.560954	1.560954	0	1	0	0	CorrectCommission	2.057765	1.202146	0	0	55
50.635326	1.279578	city	3	1	1.183977	1.183977	0	1	0	0	CorrectCommission	0.330817	1.170298	0	0	55
51.914906	1.279579	city	1	1	1.175682	1.175682	0	1	0	0	CorrectCommission	0.292816	1.134678	0	0	55
53.194504	1.279620	city	3	1	1.666856	1.666856	0	1	0	0	CorrectCommission	2.542906	1.096414	0	0	55
54.474102	1.279572	city	2	1	1.300267	1.300267	0	1	0	0	CorrectCommission	0.863545	1.056943	0	0	55
55.753662	1.279549	city	10	1	0.971378	0.971378	0	1	0	0	CorrectCommission	0.643110	1.018064	0	0	55
57.053226	1.319579	city	8	1	1.668825	1.668825	0	1	0	0	CorrectCommission	2.551927	0.981723	0	0	55
57.713017	8.357303	break	0	1	1.176075	1.176075	0	0	0	0	ThoughtProbe	0.294616	0.949789	0	55	55
66.710075	1.279513	city	2	1	1.175363	1.175363	0	1	0	0	CorrectCommission	0.291356	0.923924	0	0	5.465217e+01
67.989632	1.279596	mountain	9	0	0.000000	1.175148	1	0	0	0	CorrectOmission	0.290371	0.905191	0	0	5.430435e+01
69.269203	1.279556	city	7	1	1.135469	1.135469	0	1	0	0	CorrectCommission	0.108599	0.893915	0	0	5.395652e+01
70.548775	1.279579	city	5	1	1.016365	1.016365	0	1	0	0	CorrectCommission	0.437023	0.889614	0	0	5.360870e+01
71.828354	1.279584	city	3	1	1.015676	1.015676	0	1	0	0	CorrectCommission	0.440177	0.891054	0	0	5.326087e+01
73.114601	1.292907	city	9	1	0.804338	0.804338	0	1	0	0	CorrectCommission	1.408330	0.896488	0	0	5.291304e+01
74.400841	1.279571	city	6	1	0.560028	0.560028	0	1	0	0	CorrectCommission	2.527523	0.903897	0	0	5.256522e+01
75.680435	1.279620	city	7	1	0.874171	0.874171	0	1	0	0	CorrectCommission	1.088419	0.911300	0	0	5.221739e+01
76.960014	1.279541	mountain	4	0	0.000000	1.019887	1	0	0	0	CorrectOmission	0.420887	0.917080	0	0	5.186957e+01
78.246239	1.292906	city	5	1	0.979678	0.979678	0	1	0	0	CorrectCommission	0.605087	0.920049	0	0	5.152174e+01
79.532486	1.279580	mountain	10	1	0.736046	0.736046	0	0	1	0	CommissionError	1.721178	0.919492	0	0	5.117391e+01
80.832069	1.319588	city	1	1	1.025380	1.025380	0	1	0	0	CorrectCommission	0.395723	0.915065	0	0	5.082609e+01
82.138313	1.292909	city	10	1	0.974787	0.974787	0	1	0	0	CorrectCommission	0.627492	0.906782	0	0	5.047826e+01
83.424553	1.279561	city	2	1	0.968526	0.968526	0	1	0	0	CorrectCommission	0.656175	0.894786	0	0	5.013043e+01
84.717392	1.306119	city	3	1	0.897385	0.897385	0	1	0	0	CorrectCommission	0.982074	0.879334	0	0	4.978261e+01
86.010323	1.279739	city	4	1	0.719630	0.719630	0	1	0	0	CorrectCommission	1.796377	0.860779	0	0	4.943478e+01
87.296623	1.292866	city	3	1	0.954577	0.954577	0	1	0	0	CorrectCommission	0.720076	0.839565	0	0	4.908696e+01
88.596184	1.306255	city	9	1	0.993176	0.993176	0	1	0	0	CorrectCommission	0.543250	0.816272	0	0	4.873913e+01
89.889091	1.279555	city	5	1	0.940342	0.940342	0	1	0	0	CorrectCommission	0.785289	0.791668	0	0	4.839130e+01
91.181992	1.306256	city	9	1	0.844321	0.844321	0	1	0	0	CorrectCommission	1.225163	0.766728	0	0	4.804348e+01
92.474907	1.279563	city	1	1	0.973682	0.973682	0	1	0	0	CorrectCommission	0.632555	0.742557	0	0	4.769565e+01
93.761139	1.292911	city	9	1	0.965765	0.965765	0	1	0	0	CorrectCommission	0.668825	0.720432	0	0	4.734783e+01
95.047386	1.279575	city	8	1	1.230416	1.230416	0	1	0	0	CorrectCommission	0.543554	0.701654	0	0	47
96.326973	1.279601	city	5	1	1.084066	1.084066	0	1	0	0	CorrectCommission	0.126882	0.687448	1	0	4.665217e+01
97.606552	1.279560	city	2	1	0.914869	0.914869	0	1	0	0	CorrectCommission	0.901982	0.678870	1	0	4.630435e+01
98.906128	1.319587	city	10	1	0.996061	0.996061	0	1	0	0	CorrectCommission	0.530036	0.676686	1	0	4.595652e+01
100.205711	1.279580	city	3	1	1.042425	1.042425	0	1	0	0	CorrectCommission	0.317639	0.681403	1	0	4.560870e+01
101.491943	1.292882	city	8	1	0.979132	0.979132	0	1	0	0	CorrectCommission	0.607587	0.693145	1	0	4.526087e+01
102.778168	1.279581	city	3	1	0.963841	0.963841	0	1	0	0	CorrectCommission	0.677635	0.711681	0	0	4.491304e+01
104.057716	1.279506	city	8	1	0.838515	0.838515	0	1	0	0	CorrectCommission	1.251761	0.736468	0	0	4.456522e+01
105.337296	1.279652	city	4	1	1.017074	1.017074	0	1	0	0	CorrectCommission	0.433774	0.766640	0	0	4.421739e+01
106.623573	1.292908	city	7	1	1.037854	1.037854	0	1	0	0	CorrectCommission	0.338581	0.801038	0	0	4.386957e+01
107.909828	1.279603	city	9	1	0.942192	0.942192	0	1	0	0	CorrectCommission	0.776812	0.838184	0	0	4.352174e+01
109.196083	1.292909	city	6	1	0.904229	0.904229	0	1	0	0	CorrectCommission	0.950720	0.876338	0	0	4.317391e+01
110.495644	1.306211	city	4	1	0.917973	0.917973	0	1	0	0	CorrectCommission	0.887760	0.913535	0	0	4.282609e+01
111.788551	1.279605	mountain	8	0	0.000000	0.895208	1	0	0	0	CorrectOmission	0.992049	0.947693	0	0	4.247826e+01
113.068153	1.279587	city	10	1	0.867779	0.867779	0	1	0	0	CorrectCommission	1.117699	0.976716	0	0	4.213043e+01
114.347717	1.279543	city	9	1	0.867534	0.867534	0	1	0	0	CorrectCommission	1.118822	0.998629	0	0	4.178261e+01
115.640602	1.306239	city	5	1	1.484943	1.484943	0	1	0	0	CorrectCommission	1.709555	1.011784	0	0	4.143478e+01
116.940193	1.292930	city	6	1	1.341225	1.341225	0	1	0	0	CorrectCommission	1.051175	1.014996	0	0	4.108696e+01
118.239777	1.306235	city	10	1	0.943837	0.943837	0	1	0	0	CorrectCommission	0.769279	1.007723	0	0	4.073913e+01
119.532684	1.279580	city	7	1	0.787748	0.787748	0	1	0	0	CorrectCommission	1.484329	0.990141	0	0	4.039130e+01
120.818916	1.292885	city	9	1	1.397871	1.397871	0	1	0	0	CorrectCommission	1.310673	0.963227	0	0	4.004348e+01
122.131805	1.332895	city	2	1	0.912828	0.912828	0	1	0	0	CorrectCommission	0.911328	0.928756	0	0	3.969565e+01
123.444717	1.292931	city	7	1	0.952193	0.952193	0	1	0	0	CorrectCommission	0.730997	0.889221	0	0	3.934783e+01
127.343269	6.504171	break	0	1	0.646077	0.646077	0	0	0	0	ThoughtProbe	2.133330	0.847693	0	39	39
131.248642	1.306570	city	3	1	1.137353	1.137353	0	1	0	0	CorrectCommission	0.117228	0.807480	0	0	3.905000e+01
132.561707	1.319569	city	10	1	1.042579	1.042579	0	1	0	0	CorrectCommission	0.316937	0.771961	0	0	3.910000e+01
133.861282	1.279581	city	8	1	1.072579	1.072579	0	1	0	0	CorrectCommission	0.179503	0.744135	0	0	3.915000e+01
135.140869	1.279588	city	1	1	1.255836	1.255836	0	1	0	0	CorrectCommission	0.660005	0.726365	0	0	3.920000e+01
136.427109	1.292892	city	4	1	1.056914	1.056914	0	1	0	0	CorrectCommission	0.251264	0.720086	0	0	3.925000e+01
137.720016	1.292912	city	7	1	0.943992	0.943992	0	1	0	0	CorrectCommission	0.768567	0.725662	0	0	3.930000e+01
139.006256	1.279580	mountain	4	0	0.000000	1.029830	1	0	0	0	CorrectOmission	0.375341	0.742308	0	0	3.935000e+01
140.285843	1.279600	city	9	1	1.097881	1.097881	0	1	0	0	CorrectCommission	0.063592	0.768210	0	0	3.940000e+01
141.585388	1.319477	city	6	1	0.931602	0.931602	0	1	0	0	CorrectCommission	0.825327	0.800678	0	0	3.945000e+01
142.884949	1.279642	city	8	1	0.894600	0.894600	0	1	0	0	CorrectCommission	0.994834	0.836435	0	0	3.950000e+01
144.164581	1.279621	city	7	1	0.889343	0.889343	0	1	0	0	CorrectCommission	1.018918	0.872010	0	0	3.955000e+01
145.464157	1.319531	city	4	1	0.848145	0.848145	0	1	0	0	CorrectCommission	1.207644	0.904070	0	0	3.960000e+01
146.783707	1.319575	city	9	1	0.790341	0.790341	0	1	0	0	CorrectCommission	1.472449	0.929749	0	0	3.965000e+01
148.089935	1.292893	mountain	3	1	0.821008	0.821008	0	0	1	0	CommissionError	1.331960	0.946883	0	0	3.970000e+01
149.382843	1.292910	city	6	1	0.874537	0.874537	0	1	0	0	CorrectCommission	1.086741	0.954161	0	0	3.975000e+01
150.682404	1.306232	city	10	1	0.819593	0.819593	0	1	0	0	CorrectCommission	1.338443	0.951177	0	0	3.980000e+01
152.001968	1.332893	city	7	1	0.998165	0.998165	0	1	0	0	CorrectCommission	0.520398	0.938327	0	0	3.985000e+01
153.308228	1.279623	city	10	1	0.999261	0.999261	0	1	0	0	CorrectCommission	0.515376	0.916702	0	0	3.990000e+01
154.587830	1.279561	mountain	2	1	0.655981	0.655981	0	0	1	0	CommissionError	2.087959	0.887895	0	0	3.995000e+01
155.874069	1.292931	city	2	1	1.323676	1.323676	0	1	0	0	CorrectCommission	0.970783	0.853773	0	0	40
157.200256	1.359437	city	3	1	1.205204	1.205204	0	1	0	0	CorrectCommission	0.428057	0.816401	0	0	4.005000e+01
158.539795	1.319658	city	2	1	1.087776	1.087776	0	1	0	0	CorrectCommission	0.109885	0.777831	0	0	4.010000e+01
159.839417	1.279572	city	7	1	1.313794	1.313794	0	1	0	0	CorrectCommission	0.925512	0.740021	0	0	4.015000e+01
161.132324	1.306241	city	5	1	0.939207	0.939207	0	1	0	0	CorrectCommission	0.790485	0.704722	0	0	4.020000e+01
162.438538	1.306175	city	2	1	0.922357	0.922357	0	1	0	0	CorrectCommission	0.867677	0.673480	1	0	4.025000e+01
163.738129	1.293009	city	10	1	1.007285	1.007285	0	1	0	0	CorrectCommission	0.478617	0.647560	1	0	4.030000e+01
165.024384	1.279518	city	2	1	0.968424	0.968424	0	1	0	0	CorrectCommission	0.656641	0.627938	1	0	4.035000e+01
166.303970	1.279640	city	4	1	1.151865	1.151865	0	1	0	0	CorrectCommission	0.183707	0.615212	1	0	4.040000e+01
167.603546	1.319530	city	8	1	1.064010	1.064010	0	1	0	0	CorrectCommission	0.218759	0.609578	1	0	4.045000e+01
168.929642	1.332659	city	4	1	0.957311	0.957311	0	1	0	0	CorrectCommission	0.707549	0.610770	1	0	4.050000e+01
170.249207	1.306467	city	9	1	0.982879	0.982879	0	1	0	0	CorrectCommission	0.590422	0.618000	1	0	4.055000e+01
171.548904	1.292918	city	4	1	0.952515	0.952515	0	1	0	0	CorrectCommission	0.729522	0.629998	1	0	4.060000e+01
172.841797	1.292887	city	7	1	1.113140	1.113140	0	1	0	0	CorrectCommission	0.006310	0.645065	1	0	4.065000e+01
174.134705	1.292903	city	2	1	1.009832	1.009832	0	1	0	0	CorrectCommission	0.466950	0.661204	1	0	4.070000e+01
175.427567	1.292837	city	5	1	0.866988	0.866988	0	1	0	0	CorrectCommission	1.121324	0.676272	1	0	4.075000e+01
176.727142	1.306307	city	2	1	0.927176	0.927176	0	1	0	0	CorrectCommission	0.845600	0.688210	1	0	4.080000e+01
178.066742	1.372883	city	10	1	0.927213	0.927213	0	1	0	0	CorrectCommission	0.845433	0.695298	1	0	4.085000e+01
179.406311	1.306259	city	8	1	0.808094	0.808094	0	1	0	0	CorrectCommission	1.391121	0.696313	1	0	4.090000e+01
180.712540	1.306215	city	6	1	0.997610	0.997610	0	1	0	0	CorrectCommission	0.522940	0.690698	1	0	4.095000e+01
184.811188	6.891090	break	0	1	1.059403	1.059403	0	0	0	0	ThoughtProbe	0.239863	0.678646	1	41	41
188.896515	1.279555	city	3	1	1.527131	1.527131	0	1	0	0	CorrectCommission	1.902817	0.660998	1	0	4.085294e+01
190.182693	1.292797	city	2	1	1.274217	1.274217	0	1	0	0	CorrectCommission	0.744211	0.639119	1	0	4.070588e+01
191.468964	1.279731	city	5	1	1.193902	1.193902	0	1	0	0	CorrectCommission	0.376280	0.614754	1	0	4.055882e+01
192.748611	1.279574	city	4	1	1.131405	1.131405	0	1	0	0	CorrectCommission	0.089983	0.589704	1	0	4.041176e+01
194.048126	1.319471	city	2	1	1.146646	1.146646	0	1	0	0	CorrectCommission	0.159802	0.565575	1	0	4.026471e+01
195.354355	1.292967	city	7	1	1.007468	1.007468	0	1	0	0	CorrectCommission	0.477779	0.543585	1	0	4.011765e+01
196.660583	1.319492	mountain	6	1	0.978724	0.978724	0	0	1	0	CommissionError	0.609460	0.524440	1	0	3.997059e+01
197.960159	1.279654	city	1	1	1.146231	1.146231	0	1	0	0	CorrectCommission	0.157898	0.508324	1	0	3.982353e+01
199.259781	1.319585	city	8	1	0.954222	0.954222	0	1	0	0	CorrectCommission	0.721704	0.494976	1	0	3.967647e+01
200.572693	1.306239	city	2	1	1.000886	1.000886	0	1	0	0	CorrectCommission	0.507934	0.483791	1	0	3.952941e+01
201.865601	1.279577	city	4	1	1.046754	1.046754	0	1	0	0	CorrectCommission	0.297807	0.474041	1	0	3.938235e+01
203.145096	1.279440	mountain	6	1	0.914219	0.914219	0	0	1	0	CommissionError	0.904959	0.465030	1	0	3.923529e+01
204.424683	1.279720	city	2	1	1.016067	1.016067	0	1	0	0	CorrectCommission	0.438388	0.456210	1	0	3.908824e+01
205.724319	1.319544	city	7	1	0.992381	0.992381	0	1	0	0	CorrectCommission	0.546895	0.447309	1	0	3.894118e+01
207.043884	1.319594	city	4	1	0.988467	0.988467	0	1	0	0	CorrectCommission	0.564822	0.438320	1	0	3.879412e+01
208.343460	1.279571	city	2	1	1.030987	1.030987	0	1	0	0	CorrectCommission	0.370040	0.429458	1	0	3.864706e+01
209.636368	1.306224	city	5	1	1.074537	1.074537	0	1	0	0	CorrectCommission	0.170532	0.421093	1	0	3.850000e+01
210.929260	1.279567	city	2	1	1.055200	1.055200	0	1	0	0	CorrectCommission	0.259117	0.413658	1	0	3.835294e+01
212.215515	1.292932	city	1	1	1.086873	1.086873	0	1	0	0	CorrectCommission	0.114024	0.407545	1	0	3.820588e+01
213.521759	1.319562	city	8	1	1.011891	1.011891	0	1	0	0	CorrectCommission	0.457519	0.403087	1	0	3.805882e+01
214.821335	1.279581	city	3	1	0.987699	0.987699	0	1	0	0	CorrectCommission	0.568345	0.400529	1	0	3.791176e+01
216.114227	1.306226	city	1	1	1.272134	1.272134	0	1	0	0	CorrectCommission	0.734666	0.400074	1	0	3.776471e+01
217.407135	1.279577	city	4	1	1.211941	1.211941	0	1	0	0	CorrectCommission	0.458918	0.401891	1	0	3.761765e+01
218.700058	1.306282	city	10	1	1.075630	1.075630	0	1	0	0	CorrectCommission	0.165525	0.406168	1	0	3.747059e+01
219.999649	1.292880	city	2	1	1.168112	1.168112	0	1	0	0	CorrectCommission	0.258138	0.413126	1	0	3.732353e+01
221.299210	1.306242	city	1	1	1.125604	1.125604	0	1	0	0	CorrectCommission	0.063404	0.423050	1	0	3.717647e+01
222.598694	1.292731	city	8	1	1.059511	1.059511	0	1	0	0	CorrectCommission	0.239368	0.436293	1	0	3.702941e+01
223.891602	1.293083	city	6	1	0.900334	0.900334	0	1	0	0	CorrectCommission	0.968567	0.453278	1	0	3.688235e+01
225.184586	1.292884	city	3	1	1.206856	1.206856	0	1	0	0	CorrectCommission	0.435624	0.474446	1	0	3.673529e+01
226.504135	1.346224	city	10	1	1.017519	1.017519	0	1	0	0	CorrectCommission	0.431738	0.500251	1	0	3.658824e+01
227.823730	1.292960	city	1	1	1.278209	1.278209	0	1	0	0	CorrectCommission	0.762497	0.531016	1	0	3.644118e+01
229.129974	1.319529	city	7	1	1.147011	1.147011	0	1	0	0	CorrectCommission	0.161472	0.566830	1	0	3.629412e+01
230.442856	1.306243	city	6	1	1.079083	1.079083	0	1	0	0	CorrectCommission	0.149708	0.607442	1	0	3.614706e+01
233.914963	5.637983	break	0	1	1.215411	1.215411	0	0	0	0	ThoughtProbe	0.474816	0.652102	1	36	36
237.380493	1.293068	city	2	1	1.030828	1.030828	0	1	0	0	CorrectCommission	0.370768	0.699528	1	0	36
238.673508	1.292942	city	1	1	1.423102	1.423102	0	1	0	0	CorrectCommission	1.426258	0.747863	0	0	36
239.966400	1.292851	city	4	1	1.403847	1.403847	0	1	0	0	CorrectCommission	1.338048	0.794745	0	0	36
241.259293	1.292929	city	5	1	1.115456	1.115456	0	1	0	0	CorrectCommission	0.016916	0.837530	0	0	36
242.545547	1.279579	city	4	1	1.265054	1.265054	0	1	0	0	CorrectCommission	0.702234	0.873521	0	0	36
243.825119	1.279565	city	6	1	1.042141	1.042141	0	1	0	0	CorrectCommission	0.318941	0.900269	0	0	36
245.118027	1.306254	city	8	1	0.812024	0.812024	0	1	0	0	CorrectCommission	1.373119	0.915922	0	0	36
246.417511	1.292735	city	1	1	1.766742	1.766742	0	1	0	0	CorrectCommission	3.000488	0.919509	0	0	36
247.717072	1.306387	city	4	1	1.546705	1.546705	0	1	0	0	CorrectCommission	1.992490	0.911120	0	0	36
249.030060	1.319588	city	2	1	1.256284	1.256284	0	1	0	0	CorrectCommission	0.662055	0.892017	0	0	36
250.342957	1.306184	city	4	1	1.234940	1.234940	0	1	0	0	CorrectCommission	0.564281	0.864442	0	0	36
251.642517	1.292946	city	10	1	1.065854	1.065854	0	1	0	0	CorrectCommission	0.210310	0.831304	0	0	36
252.928726	1.279475	city	5	1	1.308734	1.308734	0	1	0	0	CorrectCommission	0.902334	0.795784	0	0	36
254.214981	1.293043	city	6	1	1.230233	1.230233	0	1	0	0	CorrectCommission	0.542715	0.760871	0	0	36
255.521286	1.319550	city	9	1	1.034019	1.034019	0	1	0	0	CorrectCommission	0.356151	0.729015	0	0	36
256.820862	1.279595	city	7	1	1.051292	1.051292	0	1	0	0	CorrectCommission	0.277019	0.701829	0	0	36
258.107086	1.292892	mountain	3	0	0.000000	0.994970	1	0	0	0	CorrectOmission	0.535033	0.679979	1	0	36
259.433319	1.359549	mountain	10	1	1.023387	1.023387	0	0	1	0	CommissionError	0.404853	0.663230	1	0	36
260.752869	1.279551	mountain	2	0	0.000000	1.294878	1	0	0	0	CorrectOmission	0.838859	0.650619	1	0	36
262.032379	1.279470	city	3	1	1.464543	1.464543	0	1	0	0	CorrectCommission	1.616102	0.640722	1	0	36
263.331970	1.319712	city	8	1	1.187483	1.187483	0	1	0	0	CorrectCommission	0.346875	0.631934	1	0	36
264.651581	1.319536	city	2	1	1.091790	1.091790	0	1	0	0	CorrectCommission	0.091498	0.622786	1	0	36
265.951080	1.279449	city	5	1	1.324872	1.324872	0	1	0	0	CorrectCommission	0.976263	0.612140	1	0	36
267.244019	1.306411	mountain	5	1	1.126064	1.126064	0	0	1	0	CommissionError	0.065515	0.599302	1	0	36
268.543671	1.292889	city	7	1	1.483283	1.483283	0	1	0	0	CorrectCommission	1.701950	0.584170	1	0	36
269.836517	1.292840	city	10	1	1.070675	1.070675	0	1	0	0	CorrectCommission	0.188228	0.567132	1	0	36
271.122772	1.279644	city	6	1	1.349554	1.349554	0	1	0	0	CorrectCommission	1.089333	0.549061	1	0	36
272.442383	1.359560	city	1	1	1.167794	1.167794	0	1	0	0	CorrectCommission	0.256682	0.531063	1	0	36
273.795258	1.346197	city	9	1	1.239101	1.239101	0	1	0	0	CorrectCommission	0.583339	0.514352	1	0	36
275.114807	1.292921	city	4	1	1.120914	1.120914	0	1	0	0	CorrectCommission	0.041920	0.499955	1	0	36
276.407715	1.292901	city	7	1	1.172978	1.172978	0	1	0	0	CorrectCommission	0.280429	0.488670	1	0	36
277.713959	1.319564	city	6	1	1.146288	1.146288	0	1	0	0	CorrectCommission	0.158162	0.480940	1	0	36
279.020203	1.292927	city	3	1	1.138599	1.138599	0	1	0	0	CorrectCommission	0.122937	0.476884	1	0	36
280.326447	1.319564	city	10	1	1.170691	1.170691	0	1	0	0	CorrectCommission	0.269951	0.476363	1	0	36
281.626007	1.279562	city	6	1	1.401554	1.401554	0	1	0	0	CorrectCommission	1.327548	0.479122	1	0	36
282.938904	1.346225	city	2	1	1.276447	1.276447	0	1	0	0	CorrectCommission	0.754424	0.484913	1	0	36
284.265137	1.306234	city	10	1	1.233429	1.233429	0	1	0	0	CorrectCommission	0.557357	0.493640	1	0	36
285.564636	1.292744	city	8	1	1.167381	1.167381	0	1	0	0	CorrectCommission	0.254788	0.505328	1	0	36
286.857544	1.293071	city	4	1	1.220352	1.220352	0	1	0	0	CorrectCommission	0.497453	0.520052	1	0	36
288.163849	1.319589	city	2	1	1.211531	1.211531	0	1	0	0	CorrectCommission	0.457042	0.537788	1	0	36
289.476776	1.306220	city	9	1	1.181070	1.181070	0	1	0	0	CorrectCommission	0.317496	0.558266	1	0	36
290.789642	1.319560	city	5	1	0.976601	0.976601	0	1	0	0	CorrectCommission	0.619185	0.580811	1	0	36
292.102570	1.306257	city	6	1	1.154654	1.154654	0	1	0	0	CorrectCommission	0.196487	0.604255	1	0	36
293.415466	1.319547	city	7	1	1.094466	1.094466	0	1	0	0	CorrectCommission	0.079238	0.627051	1	0	36
294.721649	1.292812	city	9	1	1.118676	1.118676	0	1	0	0	CorrectCommission	0.031668	0.647430	1	0	36
298.673584	6.611091	break	0	0	0.000000	1.347951	0	0	0	0	ThoughtProbe	1.081989	0.663764	1	36	36
302.619019	1.279761	mountain	7	0	0.000000	1.574139	1	0	0	0	CorrectOmission	2.118165	0.674813	1	0	3.629412e+01
303.912018	1.306226	city	4	1	1.589085	1.589085	0	1	0	0	CorrectCommission	2.186634	0.680103	1	0	3.658824e+01
305.244904	1.359568	city	6	1	1.184637	1.184637	0	1	0	0	CorrectCommission	0.333837	0.680046	1	0	3.688235e+01
306.591125	1.332868	city	7	1	1.031044	1.031044	0	1	0	0	CorrectCommission	0.369779	0.675968	1	0	3.717647e+01
307.917358	1.319567	city	4	1	1.148082	1.148082	0	1	0	0	CorrectCommission	0.166381	0.669804	1	0	3.747059e+01
309.216919	1.279578	city	5	1	0.940941	0.940941	0	1	0	0	CorrectCommission	0.782544	0.663784	1	0	3.776471e+01
310.503174	1.292906	city	1	1	1.058960	1.058960	0	1	0	0	CorrectCommission	0.241893	0.659967	1	0	3.805882e+01
311.816071	1.332922	city	7	1	0.997692	0.997692	0	1	0	0	CorrectCommission	0.522563	0.659865	1	0	3.835294e+01
313.148987	1.332905	city	4	1	1.047639	1.047639	0	1	0	0	CorrectCommission	0.293755	0.664088	1	0	3.864706e+01
314.455231	1.279567	city	9	1	1.002537	1.002537	0	1	0	0	CorrectCommission	0.500367	0.672227	1	0	3.894118e+01
315.748138	1.306239	city	7	1	1.180444	1.180444	0	1	0	0	CorrectCommission	0.314633	0.682914	1	0	3.923529e+01
317.047699	1.292908	city	2	1	1.175547	1.175547	0	1	0	0	CorrectCommission	0.292197	0.694083	1	0	3.952941e+01
318.347260	1.306212	city	7	1	1.030249	1.030249	0	1	0	0	CorrectCommission	0.373419	0.703370	0	0	3.982353e+01
319.640167	1.279585	mountain	3	0	0.000000	1.482981	1	0	0	0	CorrectOmission	1.700566	0.708551	0	0	4.011765e+01
320.919739	1.279575	city	5	1	1.793748	1.793748	0	1	0	0	CorrectCommission	3.124206	0.707939	0	0	4.041176e+01
322.205933	1.292802	city	1	1	1.222558	1.222558	0	1	0	0	CorrectCommission	0.507556	0.700702	0	0	4.070588e+01
323.518768	1.332906	city	8	1	1.086065	1.086065	0	1	0	0	CorrectCommission	0.117721	0.687055	1	0	41
324.838409	1.306372	city	6	1	1.073596	1.073596	0	1	0	0	CorrectCommission	0.174845	0.668068	1	0	4.129412e+01
326.158051	1.332914	city	9	1	0.931520	0.931520	0	1	0	0	CorrectCommission	0.825699	0.645531	1	0	4.158824e+01
327.470947	1.292850	city	4	1	1.012549	1.012549	0	1	0	0	CorrectCommission	0.454502	0.621604	1	0	4.188235e+01
328.763763	1.292763	city	7	1	1.178880	1.178880	0	1	0	0	CorrectCommission	0.307468	0.598567	1	0	4.217647e+01
330.089996	1.359697	city	3	1	1.032333	1.032333	0	1	0	0	CorrectCommission	0.363874	0.578529	1	0	4.247059e+01
331.416290	1.292924	city	2	1	0.994642	0.994642	0	1	0	0	CorrectCommission	0.536538	0.563257	1	0	4.276471e+01
332.709167	1.292849	city	6	1	0.977267	0.977267	0	1	0	0	CorrectCommission	0.616131	0.554093	1	0	4.305882e+01
334.002075	1.292948	city	4	1	1.017170	1.017170	0	1	0	0	CorrectCommission	0.433333	0.551963	1	0	4.335294e+01
335.308350	1.319583	city	2	1	1.220172	1.220172	0	1	0	0	CorrectCommission	0.496626	0.557353	1	0	4.364706e+01
336.621246	1.306240	city	6	1	1.287168	1.287168	0	1	0	0	CorrectCommission	0.803538	0.570319	1	0	4.394118e+01
337.947479	1.346231	city	1	1	1.022307	1.022307	0	1	0	0	CorrectCommission	0.409800	0.590424	1	0	4.423529e+01
339.267059	1.292888	city	2	1	1.113633	1.113633	0	1	0	0	CorrectCommission	0.008566	0.616747	1	0	4.452941e+01
340.559937	1.292907	city	10	1	0.892954	0.892954	0	1	0	0	CorrectCommission	1.002372	0.647816	1	0	4.482353e+01
341.892822	1.372861	city	3	1	1.166495	1.166495	0	1	0	0	CorrectCommission	0.250732	0.681568	1	0	4.511765e+01
343.232391	1.306274	city	4	1	1.234421	1.234421	0	1	0	0	CorrectCommission	0.561900	0.715472	0	0	4.541176e+01
344.538635	1.306215	city	8	1	1.030979	1.030979	0	1	0	0	CorrectCommission	0.370075	0.746631	0	0	4.570588e+01
348.057404	5.731290	break	0	1	1.248586	1.248586	0	0	0	0	ThoughtProbe	0.626793	0.772065	0	46	46
351.589569	1.333051	city	8	1	1.445806	1.445806	0	1	0	0	CorrectCommission	1.530265	0.789062	0	0	4.622500e+01
352.922546	1.332925	mountain	4	0	0.000000	1.414479	1	0	0	0	CorrectOmission	1.386758	0.795491	0	0	4.645000e+01
354.235474	1.292903	city	1	1	1.383441	1.383441	0	1	0	0	CorrectCommission	1.244571	0.790154	0	0	4.667500e+01
355.535034	1.306232	city	7	1	1.581526	1.581526	0	1	0	0	CorrectCommission	2.152007	0.773039	0	0	4.690000e+01
356.901245	1.426181	city	3	1	1.290219	1.290219	0	1	0	0	CorrectCommission	0.817515	0.745302	0	0	4.712500e+01
358.260803	1.292914	city	2	1	1.033766	1.033766	0	1	0	0	CorrectCommission	0.357309	0.709177	0	0	4.735000e+01
359.547028	1.279547	city	5	1	1.207645	1.207645	0	1	0	0	CorrectCommission	0.439239	0.667618	1	0	4.757500e+01
360.833252	1.292928	mountain	3	1	1.021724	1.021724	0	0	1	0	CommissionError	0.412472	0.623920	1	0	4.780000e+01
362.139526	1.319593	city	6	1	1.083244	1.083244	0	1	0	0	CorrectCommission	0.130648	0.581272	1	0	4.802500e+01
363.465759	1.332894	city	7	1	1.108448	1.108448	0	1	0	0	CorrectCommission	0.015187	0.542389	1	0	4.825000e+01
364.798645	1.332873	city	4	1	1.039326	1.039326	0	1	0	0	CorrectCommission	0.331839	0.509219	1	0	4.847500e+01
366.131470	1.332756	city	8	1	0.881487	0.881487	0	1	0	0	CorrectCommission	1.054906	0.482798	1	0	4.870000e+01
367.451050	1.306394	city	7	1	1.074424	1.074424	0	1	0	0	CorrectCommission	0.171051	0.463245	1	0	4.892500e+01
368.790680	1.372864	city	10	1	1.152368	1.152368	0	1	0	0	CorrectCommission	0.186015	0.449910	1	0	4.915000e+01
370.130219	1.306240	city	9	1	1.234452	1.234452	0	1	0	0	CorrectCommission	0.562045	0.441508	1	0	4.937500e+01
371.429779	1.292903	mountain	1	0	0.000000	1.143290	1	0	0	0	CorrectOmission	0.144428	0.436395	1	0	4.960000e+01
372.729370	1.306261	city	9	1	1.020394	1.020394	0	1	0	0	CorrectCommission	0.418564	0.432842	1	0	4.982500e+01
374.028961	1.292905	city	6	1	1.007276	1.007276	0	1	0	0	CorrectCommission	0.478659	0.429250	1	0	5.005000e+01
375.341858	1.332880	city	9	1	1.182898	1.182898	0	1	0	0	CorrectCommission	0.325871	0.424415	1	0	5.027500e+01
376.668060	1.319572	city	2	1	1.432057	1.432057	0	1	0	0	CorrectCommission	1.467279	0.417655	1	0	5.050000e+01
377.974304	1.292909	city	6	1	1.222813	1.222813	0	1	0	0	CorrectCommission	0.508726	0.408873	1	0	5.072500e+01
379.280548	1.319546	city	8	1	1.087558	1.087558	0	1	0	0	CorrectCommission	0.110884	0.398594	1	0	5.095000e+01
380.580109	1.279614	city	5	1	1.047818	1.047818	0	1	0	0	CorrectCommission	0.292934	0.387808	1	0	5.117500e+01
381.886383	1.332889	city	10	1	1.005509	1.005509	0	1	0	0	CorrectCommission	0.486755	0.377801	1	0	5.140000e+01
383.199219	1.292790	city	7	1	1.114451	1.114451	0	1	0	0	CorrectCommission	0.012314	0.369962	1	0	5.162500e+01
384.512146	1.333057	city	1	1	1.151029	1.151029	0	1	0	0	CorrectCommission	0.179880	0.365539	1	0	5.185000e+01
385.838409	1.319506	city	3	1	1.247807	1.247807	0	1	0	0	CorrectCommission	0.623223	0.365458	1	0	5.207500e+01
387.144623	1.292920	city	9	1	1.113263	1.113263	0	1	0	0	CorrectCommission	0.006870	0.370173	1	0	5.230000e+01
388.437531	1.292912	city	4	1	1.088981	1.088981	0	1	0	0	CorrectCommission	0.104366	0.379599	1	0	5.252500e+01
389.737122	1.306238	city	6	1	1.127554	1.127554	0	1	0	0	CorrectCommission	0.072341	0.393097	1	0	5.275000e+01
391.036682	1.292908	city	8	1	1.006462	1.006462	0	1	0	0	CorrectCommission	0.482386	0.409589	1	0	5.297500e+01
392.329590	1.292911	city	6	1	1.017023	1.017023	0	1	0	0	CorrectCommission	0.434008	0.427665	1	0	5.320000e+01
393.662476	1.372836	city	4	1	1.288351	1.288351	0	1	0	0	CorrectCommission	0.808959	0.445796	1	0	5.342500e+01
395.002045	1.306280	city	10	1	1.234143	1.234143	0	1	0	0	CorrectCommission	0.560628	0.462486	1	0	5.365000e+01
396.328278	1.346180	city	1	1	1.289840	1.289840	0	1	0	0	CorrectCommission	0.815777	0.476503	1	0	5.387500e+01
397.681152	1.359596	city	8	1	1.181459	1.181459	0	1	0	0	CorrectCommission	0.319282	0.486944	1	0	5.410000e+01
399.034058	1.346206	city	4	1	1.000221	1.000221	0	1	0	0	CorrectCommission	0.510979	0.493341	1	0	5.432500e+01
400.366943	1.319563	city	6	1	0.958609	0.958609	0	1	0	0	CorrectCommission	0.701604	0.495738	1	0	5.455000e+01
401.679840	1.306236	city	8	1	1.019237	1.019237	0	1	0	0	CorrectCommission	0.423866	0.494562	1	0	5.477500e+01
404.705383	4.744854	break	0	1	1.234211	1.234211	0	0	0	0	ThoughtProbe	0.560941	0.490670	1	55	55
407.771057	1.386485	city	7	1	1.220069	1.220069	0	1	0	0	CorrectCommission	0.496157	0.485265	1	0	5.464706e+01
409.117401	1.306230	city	9	1	1.287422	1.287422	0	1	0	0	CorrectCommission	0.804703	0.479799	1	0	5.429412e+01
410.430298	1.319572	city	1	1	1.037980	1.037980	0	1	0	0	CorrectCommission	0.338001	0.475964	1	0	5.394118e+01
411.763123	1.346067	city	10	1	1.165353	1.165353	0	1	0	0	CorrectCommission	0.245498	0.475650	1	0	5.358824e+01
413.102692	1.333064	city	3	1	1.064618	1.064618	0	1	0	0	CorrectCommission	0.215972	0.480766	1	0	5.323529e+01
414.422333	1.306226	mountain	2	0	0.000000	1.158871	1	0	0	0	CorrectOmission	0.215802	0.493179	1	0	5.288235e+01
415.715179	1.279463	city	5	1	1.259998	1.259998	0	1	0	0	CorrectCommission	0.679071	0.514609	1	0	5.252941e+01
417.008087	1.306330	city	3	1	1.179888	1.179888	0	1	0	0	CorrectCommission	0.312086	0.546451	1	0	5.217647e+01
418.301056	1.279600	city	7	1	1.178613	1.178613	0	1	0	0	CorrectCommission	0.306241	0.589604	1	0	5.182353e+01
419.580627	1.279561	mountain	1	1	1.356156	1.356156	0	0	1	0	CommissionError	1.119574	0.644302	1	0	5.147059e+01
420.906860	1.372881	city	7	1	1.035631	1.035631	0	1	0	0	CorrectCommission	0.348763	0.709935	0	0	5.111765e+01
422.259735	1.332918	city	4	1	1.057096	1.057096	0	1	0	0	CorrectCommission	0.250434	0.784996	0	0	5.076471e+01
423.585999	1.319568	city	1	1	1.140758	1.140758	0	1	0	0	CorrectCommission	0.132828	0.866986	0	0	5.041176e+01
424.898804	1.306067	city	6	1	1.242525	1.242525	0	1	0	0	CorrectCommission	0.599028	0.952595	0	0	5.005882e+01
426.218353	1.333035	city	7	1	1.053072	1.053072	0	1	0	0	CorrectCommission	0.268865	1.037998	0	0	4.970588e+01
427.544678	1.319590	city	6	1	1.031000	1.031000	0	1	0	0	CorrectCommission	0.369981	1.119330	0	0	4.935294e+01
428.850922	1.292906	city	2	1	2.166812	2.166812	0	1	0	0	CorrectCommission	4.833227	1.193143	0	0	49
430.157166	1.319566	city	5	1	1.507633	1.507633	0	1	0	0	CorrectCommission	1.813499	1.256772	0	0	4.864706e+01
431.470062	1.306239	city	1	1	1.490477	1.490477	0	1	0	0	CorrectCommission	1.734907	1.308845	0	0	4.829412e+01
432.762970	1.279577	city	4	1	1.445599	1.445599	0	1	0	0	CorrectCommission	1.529317	1.349145	0	0	4.794118e+01
434.095856	1.386190	city	6	1	1.117241	1.117241	0	1	0	0	CorrectCommission	0.025094	1.378506	0	0	4.758824e+01
435.442047	1.306236	city	1	1	0.920910	0.920910	0	1	0	0	CorrectCommission	0.874304	1.398457	0	0	4.723529e+01
436.754883	1.319422	city	9	1	1.810067	1.810067	0	1	0	0	CorrectCommission	3.198960	1.410673	0	0	4.688235e+01
438.107697	1.386218	city	6	1	1.371229	1.371229	0	1	0	0	CorrectCommission	1.188624	1.416492	0	0	4.652941e+01
439.480682	1.359707	city	9	1	0.966771	0.966771	0	1	0	0	CorrectCommission	0.664217	1.416663	0	0	4.617647e+01
440.826965	1.332872	city	5	1	0.844357	0.844357	0	1	0	0	CorrectCommission	1.224999	1.411006	0	0	4.582353e+01
442.173096	1.359420	city	1	1	0.832552	0.832552	0	1	0	0	CorrectCommission	1.279080	1.398504	0	0	4.547059e+01
443.526001	1.346367	city	10	1	1.045540	1.045540	0	1	0	0	CorrectCommission	0.303371	1.377640	0	0	4.511765e+01
444.872314	1.346245	city	4	1	0.902233	0.902233	0	1	0	0	CorrectCommission	0.959868	1.346879	0	0	4.476471e+01
446.211853	1.332872	city	8	1	1.705124	1.705124	0	1	0	0	CorrectCommission	2.718214	1.305226	0	0	4.441176e+01
447.571320	1.386028	city	10	1	2.032790	2.032790	0	1	0	0	CorrectCommission	4.219265	1.252751	0	0	4.405882e+01
448.917542	1.306439	city	4	1	1.632610	1.632610	0	1	0	0	CorrectCommission	2.386024	1.190895	0	0	4.370588e+01
450.250519	1.359526	city	8	1	1.270145	1.270145	0	1	0	0	CorrectCommission	0.725556	1.122587	0	0	4.335294e+01
454.169159	6.477754	break	0	0	0.000000	1.115474	0	0	0	0	ThoughtProbe	0.017002	1.051844	0	43	43
458.074554	1.333013	city	3	1	1.100069	1.100069	0	1	0	0	CorrectCommission	0.053573	0.983190	0	0	4.297500e+01
459.400818	1.319497	city	9	1	1.155399	1.155399	0	1	0	0	CorrectCommission	0.199898	0.920927	0	0	4.295000e+01
460.747040	1.372951	city	1	1	1.129719	1.129719	0	1	0	0	CorrectCommission	0.082258	0.868459	0	0	4.292500e+01
462.093292	1.319587	city	6	1	1.034950	1.034950	0	1	0	0	CorrectCommission	0.351882	0.827803	0	0	4.290000e+01
463.399567	1.292913	city	3	1	0.953524	0.953524	0	1	0	0	CorrectCommission	0.724898	0.799242	0	0	4.287500e+01
464.692444	1.292885	city	4	1	0.951000	0.951000	0	1	0	0	CorrectCommission	0.736464	0.781546	0	0	4.285000e+01
466.018677	1.359556	city	1	1	0.966649	0.966649	0	1	0	0	CorrectCommission	0.664776	0.772243	0	0	4.282500e+01
467.378235	1.359545	city	4	1	0.976554	0.976554	0	1	0	0	CorrectCommission	0.619399	0.768160	0	0	4.280000e+01
468.717804	1.319590	city	2	1	0.830185	0.830185	0	1	0	0	CorrectCommission	1.289920	0.766028	0	0	4.277500e+01
470.050690	1.346224	city	9	1	0.682624	0.682624	0	1	0	0	CorrectCommission	1.965904	0.762980	0	0	4.275000e+01
471.376923	1.306232	mountain	5	0	0.000000	0.938911	1	0	0	0	CorrectOmission	0.791843	0.756906	0	0	4.272500e+01
472.703156	1.346207	city	9	1	1.259187	1.259187	0	1	0	0	CorrectCommission	0.675355	0.746786	0	0	4.270000e+01
474.029388	1.306260	mountain	9	0	0.000000	1.303592	1	0	0	0	CorrectOmission	0.878778	0.732527	0	0	4.267500e+01
475.335632	1.306240	city	2	1	1.179812	1.179812	0	1	0	0	CorrectCommission	0.311737	0.714846	0	0	4.265000e+01
476.648529	1.319541	city	1	1	0.995533	0.995533	0	1	0	0	CorrectCommission	0.532454	0.694964	1	0	4.262500e+01
477.988068	1.359559	city	7	1	1.287737	1.287737	0	1	0	0	CorrectCommission	0.806144	0.674306	1	0	4.260000e+01
479.334259	1.332820	city	6	1	1.032921	1.032921	0	1	0	0	CorrectCommission	0.361177	0.654216	1	0	4.257500e+01
480.667145	1.332985	city	1	1	1.207646	1.207646	0	1	0	0	CorrectCommission	0.439245	0.635802	1	0	4.255000e+01
482.006744	1.346202	city	9	1	1.220761	1.220761	0	1	0	0	CorrectCommission	0.499325	0.619818	1	0	4.252500e+01
483.352966	1.346238	mountain	7	0	0.000000	1.260656	1	0	0	0	CorrectOmission	0.682085	0.606757	1	0	4.250000e+01
484.679169	1.306153	city	10	1	1.283035	1.283035	0	1	0	0	CorrectCommission	0.784607	0.596942	1	0	4.247500e+01
485.985321	1.306152	city	1	1	1.243604	1.243604	0	1	0	0	CorrectCommission	0.603970	0.590625	1	0	4.245000e+01
487.311584	1.346400	city	10	1	1.271764	1.271764	0	1	0	0	CorrectCommission	0.732972	0.588056	1	0	4.242500e+01
488.677826	1.386076	city	1	1	1.003881	1.003881	0	1	0	0	CorrectCommission	0.494211	0.589483	1	0	4.240000e+01
490.017395	1.293022	city	9	1	1.317462	1.317462	0	1	0	0	CorrectCommission	0.942316	0.595130	1	0	4.237500e+01
491.330353	1.332894	city	5	1	1.095122	1.095122	0	1	0	0	CorrectCommission	0.076235	0.605031	1	0	4.235000e+01
492.656494	1.319412	city	8	1	1.191479	1.191479	0	1	0	0	CorrectCommission	0.365183	0.618928	1	0	4.232500e+01
493.962738	1.293076	city	5	1	1.177510	1.177510	0	1	0	0	CorrectCommission	0.301189	0.636068	1	0	4.230000e+01
495.289032	1.359539	city	2	1	1.032742	1.032742	0	1	0	0	CorrectCommission	0.361997	0.655200	1	0	4.227500e+01
496.621948	1.306237	city	8	1	1.135972	1.135972	0	1	0	0	CorrectCommission	0.110902	0.674526	1	0	4.225000e+01
497.934845	1.319615	city	9	1	1.558735	1.558735	0	1	0	0	CorrectCommission	2.047597	0.691895	1	0	4.222500e+01
499.281097	1.372852	city	5	1	1.087155	1.087155	0	1	0	0	CorrectCommission	0.112733	0.704919	0	0	4.220000e+01
500.620636	1.306243	city	4	1	1.432588	1.432588	0	1	0	0	CorrectCommission	1.469715	0.711403	0	0	4.217500e+01
501.940155	1.332803	city	5	1	1.261214	1.261214	0	1	0	0	CorrectCommission	0.684641	0.709475	0	0	4.215000e+01
503.246307	1.279501	city	10	1	1.326937	1.326937	0	1	0	0	CorrectCommission	0.985724	0.697948	1	0	4.212500e+01
504.539276	1.306404	city	1	1	1.315252	1.315252	0	1	0	0	CorrectCommission	0.932190	0.676433	1	0	4.210000e+01
505.865479	1.346036	city	9	1	1.391502	1.391502	0	1	0	0	CorrectCommission	1.281495	0.645469	1	0	4.207500e+01
507.218384	1.359740	city	8	1	1.261758	1.261758	0	1	0	0	CorrectCommission	0.687134	0.606468	1	0	4.205000e+01
508.551361	1.306240	city	2	1	1.126694	1.126694	0	1	0	0	CorrectCommission	0.068399	0.561640	1	0	4.202500e+01
509.204498	8.823659	break	0	0	0.999614	0.999614	0	0	0	0	ThoughtProbe	0.513759	0.513759	1	42	42
