onset	duration	trial_type	image_type	Press	ReactionTime	ReactionTime_Interpolated	CorrectOmission	CorrectCommission	CommissionError	OmissionError	response_type	nonsmoothVarianceTimeCourse	VarianceTimeCourse	In_the_Zone	ThoughtProbe	ThoughtProbe_Interpolated
0.652997	1.279560	mountain	10	0	0.000000	1.116063	1	0	0	0	CorrectOmission	0.856463	0.856463	0	0	36
1.932570	1.279585	city	8	1	1.121822	1.121822	0	1	0	0	CorrectCommission	0.830550	0.840217	0	0	36
3.212069	1.279413	city	5	1	1.127581	1.127581	0	1	0	0	CorrectCommission	0.804638	0.824852	0	0	36
4.491653	1.279756	city	1	1	1.053931	1.053931	0	1	0	0	CorrectCommission	1.136006	0.811110	0	0	36
5.771252	1.279443	city	5	1	1.122451	1.122451	0	1	0	0	CorrectCommission	0.827721	0.799391	0	0	36
7.050795	1.279643	mountain	8	0	0.000000	1.290085	1	0	0	0	CorrectOmission	0.073507	0.789765	0	0	36
8.330354	1.279473	city	5	1	1.388603	1.388603	0	1	0	0	CorrectCommission	0.369742	0.781884	0	0	36
9.609946	1.279713	city	4	1	1.249776	1.249776	0	1	0	0	CorrectCommission	0.254864	0.775091	0	0	36
10.889614	1.279623	city	1	1	1.017579	1.017579	0	1	0	0	CorrectCommission	1.299557	0.768556	0	0	36
12.169230	1.279608	city	8	1	0.966598	0.966598	0	1	0	0	CorrectCommission	1.528931	0.761451	1	0	36
13.448811	1.279555	city	6	1	1.017990	1.017990	0	1	0	0	CorrectCommission	1.297712	0.753213	1	0	36
14.728309	1.279442	city	4	1	1.356550	1.356550	0	1	0	0	CorrectCommission	0.225531	0.743666	1	0	36
16.007883	1.279706	city	10	1	1.085305	1.085305	0	1	0	0	CorrectCommission	0.994849	0.733135	1	0	36
17.287525	1.279581	city	8	1	1.454523	1.454523	0	1	0	0	CorrectCommission	0.666329	0.722380	1	0	36
18.567039	1.279447	city	4	1	1.340369	1.340369	0	1	0	0	CorrectCommission	0.152731	0.712554	1	0	36
19.846621	1.279715	city	8	1	1.088409	1.088409	0	1	0	0	CorrectCommission	0.980884	0.705008	1	0	36
21.126266	1.279576	city	4	1	1.126307	1.126307	0	1	0	0	CorrectCommission	0.810373	0.701053	1	0	36
22.405848	1.279587	city	7	1	1.124407	1.124407	0	1	0	0	CorrectCommission	0.818922	0.701781	1	0	36
23.685431	1.279579	city	6	1	1.284199	1.284199	0	1	0	0	CorrectCommission	0.099986	0.707879	1	0	36
24.965008	1.279579	city	1	1	1.390405	1.390405	0	1	0	0	CorrectCommission	0.377854	0.719486	1	0	36
26.244581	1.279569	city	9	1	1.369025	1.369025	0	1	0	0	CorrectCommission	0.281660	0.736111	1	0	36
27.524158	1.279586	city	6	1	1.195927	1.195927	0	1	0	0	CorrectCommission	0.497140	0.756680	1	0	36
28.803677	1.279448	city	8	1	0.929620	0.929620	0	1	0	0	CorrectCommission	1.695304	0.779631	0	0	36
30.083241	1.279679	mountain	9	0	0.000000	1.359592	1	0	0	0	CorrectOmission	0.239217	0.803042	0	0	36
31.362885	1.279610	city	6	1	1.726611	1.726611	0	1	0	0	CorrectCommission	1.890503	0.824893	0	0	36
32.662506	1.319638	city	3	1	1.271446	1.271446	0	1	0	0	CorrectCommission	0.157364	0.843140	0	0	36
33.961990	1.279324	city	8	1	1.022354	1.022354	0	1	0	0	CorrectCommission	1.278075	0.856051	0	0	36
35.241459	1.279617	city	6	1	1.050227	1.050227	0	1	0	0	CorrectCommission	1.152669	0.862212	0	0	36
36.521103	1.279672	city	9	1	1.231272	1.231272	0	1	0	0	CorrectCommission	0.338114	0.860709	0	0	36
37.800682	1.279483	city	5	1	1.074328	1.074328	0	1	0	0	CorrectCommission	1.044237	0.851235	0	0	36
39.080204	1.279566	city	8	1	0.965386	0.965386	0	1	0	0	CorrectCommission	1.534384	0.834074	0	0	36
40.359791	1.279607	city	2	1	1.096238	1.096238	0	1	0	0	CorrectCommission	0.945658	0.810169	0	0	36
41.639393	1.279598	city	7	1	1.129334	1.129334	0	1	0	0	CorrectCommission	0.796751	0.781126	0	0	36
42.919033	1.279676	city	1	1	1.145408	1.145408	0	1	0	0	CorrectCommission	0.724431	0.749115	1	0	36
44.205322	1.292903	city	8	1	1.036866	1.036866	0	1	0	0	CorrectCommission	1.212783	0.716673	1	0	36
45.491573	1.279601	city	9	1	1.194242	1.194242	0	1	0	0	CorrectCommission	0.504722	0.686492	1	0	36
46.771156	1.279562	city	8	1	1.345497	1.345497	0	1	0	0	CorrectCommission	0.175805	0.661163	1	0	36
48.050709	1.279549	city	5	1	1.187522	1.187522	0	1	0	0	CorrectCommission	0.534953	0.642848	1	0	36
49.330299	1.279629	city	4	1	1.308830	1.308830	0	1	0	0	CorrectCommission	0.010831	0.633022	1	0	36
49.970112	10.876414	break	0	0	0.000000	1.363317	0	0	0	0	ThoughtProbe	0.255977	0.632280	1	36	36
61.486313	1.279568	city	9	1	1.407413	1.407413	0	1	0	0	CorrectCommission	0.454374	0.640240	1	0	3.612500e+01
62.765892	1.279592	city	1	1	1.497550	1.497550	0	1	0	0	CorrectCommission	0.859916	0.655562	1	0	3.625000e+01
64.045479	1.279586	mountain	2	0	0.000000	1.442426	1	0	0	0	CorrectOmission	0.611902	0.676098	1	0	3.637500e+01
65.324989	1.279437	city	6	1	1.352396	1.352396	0	1	0	0	CorrectCommission	0.206841	0.699197	1	0	3.650000e+01
66.604492	1.279565	city	5	1	1.337815	1.337815	0	1	0	0	CorrectCommission	0.141241	0.721984	1	0	3.662500e+01
67.884026	1.279500	city	6	1	1.721050	1.721050	0	1	0	0	CorrectCommission	1.865483	0.741848	1	0	3.675000e+01
69.163605	1.279649	mountain	3	0	0.000000	1.660903	1	0	0	0	CorrectOmission	1.594872	0.756624	1	0	3.687500e+01
70.443214	1.279578	city	1	1	1.505834	1.505834	0	1	0	0	CorrectCommission	0.897190	0.765034	0	0	37
71.722878	1.279743	city	2	1	1.604302	1.604302	0	1	0	0	CorrectCommission	1.340213	0.766748	0	0	3.712500e+01
73.002525	1.279560	city	4	1	1.450318	1.450318	0	1	0	0	CorrectCommission	0.647409	0.762386	1	0	3.725000e+01
74.282097	1.279572	city	3	1	1.284665	1.284665	0	1	0	0	CorrectCommission	0.097890	0.753441	1	0	3.737500e+01
75.561684	1.279604	city	4	1	1.410237	1.410237	0	1	0	0	CorrectCommission	0.467080	0.741996	1	0	3.750000e+01
76.841187	1.279399	city	8	1	1.548590	1.548590	0	1	0	0	CorrectCommission	1.089554	0.730406	1	0	3.762500e+01
78.120750	1.279728	city	4	1	1.497746	1.497746	0	1	0	0	CorrectCommission	0.860796	0.721005	1	0	3.775000e+01
79.400414	1.279604	city	7	1	1.499796	1.499796	0	1	0	0	CorrectCommission	0.870022	0.715754	1	0	3.787500e+01
80.680008	1.279582	city	6	1	1.284024	1.284024	0	1	0	0	CorrectCommission	0.100777	0.716017	1	0	38
81.959579	1.279565	city	10	1	1.390664	1.390664	0	1	0	0	CorrectCommission	0.379017	0.722327	1	0	3.812500e+01
83.239098	1.279475	city	3	1	1.142025	1.142025	0	1	0	0	CorrectCommission	0.739654	0.734344	1	0	3.825000e+01
84.518684	1.279702	city	10	1	1.253845	1.253845	0	1	0	0	CorrectCommission	0.236558	0.750915	1	0	3.837500e+01
85.798317	1.279553	city	6	1	1.454325	1.454325	0	1	0	0	CorrectCommission	0.665441	0.770205	0	0	3.850000e+01
87.077896	1.279602	city	4	1	1.516335	1.516335	0	1	0	0	CorrectCommission	0.944435	0.789993	0	0	3.862500e+01
88.357483	1.279580	city	9	1	1.391610	1.391610	0	1	0	0	CorrectCommission	0.383272	0.808043	0	0	3.875000e+01
89.636993	1.279445	city	1	1	1.658185	1.658185	0	1	0	0	CorrectCommission	1.582641	0.822510	0	0	3.887500e+01
90.916565	1.279692	city	10	1	1.409940	1.409940	0	1	0	0	CorrectCommission	0.465741	0.832234	0	0	39
92.196228	1.279638	city	5	1	1.997481	1.997481	0	1	0	0	CorrectCommission	3.109194	0.837002	0	0	3.912500e+01
93.475746	1.279402	city	6	1	1.554127	1.554127	0	1	0	0	CorrectCommission	1.114464	0.837490	0	0	3.925000e+01
94.755226	1.279556	city	8	1	1.420029	1.420029	0	1	0	0	CorrectCommission	0.511134	0.835303	0	0	3.937500e+01
96.034798	1.279577	mountain	7	0	0.000000	1.301176	1	0	0	0	CorrectOmission	0.023605	0.832516	0	0	3.950000e+01
97.314453	1.279747	city	10	1	1.242739	1.242739	0	1	0	0	CorrectCommission	0.286522	0.831347	0	0	3.962500e+01
98.594109	1.279550	city	1	1	1.289888	1.289888	0	1	0	0	CorrectCommission	0.074391	0.833738	0	0	3.975000e+01
99.873657	1.279560	city	2	1	1.390850	1.390850	0	1	0	0	CorrectCommission	0.379853	0.841053	0	0	3.987500e+01
101.153168	1.279463	city	7	1	1.497487	1.497487	0	1	0	0	CorrectCommission	0.859635	0.853857	0	0	40
102.432686	1.279573	city	2	1	1.761962	1.761962	0	1	0	0	CorrectCommission	2.049555	0.871886	0	0	4.012500e+01
103.712341	1.279729	city	8	1	1.390998	1.390998	0	1	0	0	CorrectCommission	0.380521	0.894094	0	0	4.025000e+01
104.991920	1.279435	city	9	1	1.667479	1.667479	0	1	0	0	CorrectCommission	1.624459	0.918852	0	0	4.037500e+01
106.271492	1.279711	city	10	1	1.300839	1.300839	0	1	0	0	CorrectCommission	0.025122	0.944076	0	0	4.050000e+01
107.551155	1.279606	city	7	1	1.497247	1.497247	0	1	0	0	CorrectCommission	0.858552	0.967487	0	0	4.062500e+01
108.830742	1.279581	city	10	1	1.764111	1.764111	0	1	0	0	CorrectCommission	2.059224	0.986747	0	0	4.075000e+01
110.110313	1.279557	city	6	1	1.444477	1.444477	0	1	0	0	CorrectCommission	0.621130	0.999661	0	0	4.087500e+01
110.750092	9.250341	break	0	0	0.000000	1.384557	0	0	0	0	ThoughtProbe	0.351541	1.004419	0	41	41
120.640205	1.279543	mountain	8	0	0.000000	1.500400	1	0	0	0	CorrectOmission	0.872738	0.999740	0	0	4.120588e+01
121.919769	1.279589	city	5	1	1.708052	1.708052	0	1	0	0	CorrectCommission	1.807004	0.985022	0	0	4.141176e+01
123.199318	1.279497	city	6	1	1.923562	1.923562	0	1	0	0	CorrectCommission	2.776621	0.960523	0	0	4.161765e+01
124.478806	1.279484	city	5	1	1.550649	1.550649	0	1	0	0	CorrectCommission	1.098817	0.927409	0	0	4.182353e+01
125.758339	1.279592	city	1	1	1.335460	1.335460	0	1	0	0	CorrectCommission	0.130644	0.887736	0	0	4.202941e+01
127.038010	1.279744	city	4	1	1.444189	1.444189	0	1	0	0	CorrectCommission	0.619837	0.844316	0	0	4.223529e+01
128.317657	1.279553	city	2	1	1.092301	1.092301	0	1	0	0	CorrectCommission	0.963372	0.800369	0	0	4.244118e+01
129.597229	1.279580	city	8	1	1.127359	1.127359	0	1	0	0	CorrectCommission	0.805640	0.759365	1	0	4.264706e+01
130.876740	1.279442	city	3	1	1.351522	1.351522	0	1	0	0	CorrectCommission	0.202908	0.724686	1	0	4.285294e+01
132.156311	1.279714	city	7	1	1.391100	1.391100	0	1	0	0	CorrectCommission	0.380981	0.699358	1	0	4.305882e+01
133.435959	1.279586	city	1	1	1.289122	1.289122	0	1	0	0	CorrectCommission	0.077839	0.685779	1	0	4.326471e+01
134.715546	1.279576	city	6	1	1.407076	1.407076	0	1	0	0	CorrectCommission	0.452858	0.685583	1	0	4.347059e+01
135.995132	1.279600	city	10	1	1.511347	1.511347	0	1	0	0	CorrectCommission	0.921993	0.699512	1	0	4.367647e+01
137.274719	1.279579	city	5	1	1.390769	1.390769	0	1	0	0	CorrectCommission	0.379488	0.727365	1	0	4.388235e+01
138.554306	1.279580	city	10	1	1.550780	1.550780	0	1	0	0	CorrectCommission	1.099406	0.767975	0	0	4.408824e+01
139.833847	1.279522	city	9	1	1.337655	1.337655	0	1	0	0	CorrectCommission	0.140522	0.819242	0	0	4.429412e+01
141.113434	1.279639	city	2	1	1.177597	1.177597	0	1	0	0	CorrectCommission	0.579612	0.878231	0	0	4.450000e+01
142.393036	1.279577	city	9	1	1.129305	1.129305	0	1	0	0	CorrectCommission	0.796883	0.941280	0	0	4.470588e+01
143.672623	1.279581	city	2	1	1.089912	1.089912	0	1	0	0	CorrectCommission	0.974119	1.004280	0	0	4.491176e+01
144.952194	1.279558	city	1	1	1.027478	1.027478	0	1	0	0	CorrectCommission	1.255023	1.062979	0	0	4.511765e+01
146.231750	1.279576	mountain	1	0	0.000000	1.382508	1	0	0	0	CorrectOmission	0.342322	1.113431	0	0	4.532353e+01
147.511307	1.279535	city	6	1	1.764129	1.764129	0	1	0	0	CorrectCommission	2.059302	1.152459	0	0	4.552941e+01
148.790894	1.279631	city	2	1	1.781465	1.781465	0	1	0	0	CorrectCommission	2.137302	1.177958	0	0	4.573529e+01
150.070496	1.279569	city	5	1	1.731301	1.731301	0	1	0	0	CorrectCommission	1.911606	1.189279	0	0	4.594118e+01
151.350082	1.279605	city	8	1	1.924041	1.924041	0	1	0	0	CorrectCommission	2.778774	1.187274	0	0	4.614706e+01
152.629669	1.279558	city	9	1	1.551703	1.551703	0	1	0	0	CorrectCommission	1.103561	1.174154	0	0	4.635294e+01
153.909164	1.279435	city	3	1	1.497549	1.497549	0	1	0	0	CorrectCommission	0.859914	1.153171	0	0	4.655882e+01
155.188751	1.279747	city	5	1	1.390983	1.390983	0	1	0	0	CorrectCommission	0.380452	1.127969	0	0	4.676471e+01
156.468414	1.279576	city	4	1	1.442117	1.442117	0	1	0	0	CorrectCommission	0.610513	1.102031	0	0	4.697059e+01
157.747910	1.279413	city	1	1	1.177427	1.177427	0	1	0	0	CorrectCommission	0.580372	1.078093	0	0	4.717647e+01
159.027466	1.279717	city	10	1	1.284694	1.284694	0	1	0	0	CorrectCommission	0.097762	1.057802	0	0	4.738235e+01
160.307068	1.279471	city	2	1	1.497515	1.497515	0	1	0	0	CorrectCommission	0.859758	1.041572	0	0	4.758824e+01
161.586624	1.279643	city	7	1	1.639761	1.639761	0	1	0	0	CorrectCommission	1.499750	1.028654	0	0	4.779412e+01
162.226440	13.875454	break	0	0	0.000000	1.639101	0	0	0	0	ThoughtProbe	1.496781	1.017486	0	48	48
176.741714	1.279618	city	1	1	1.624981	1.624981	0	1	0	0	CorrectCommission	1.433250	1.006109	0	0	4.743478e+01
178.021317	1.279589	city	10	1	1.726845	1.726845	0	1	0	0	CorrectCommission	1.891556	0.992610	0	0	4.686957e+01
179.300888	1.279565	city	8	1	1.363303	1.363303	0	1	0	0	CorrectCommission	0.255916	0.975460	0	0	4.630435e+01
180.580475	1.279596	city	7	1	1.124373	1.124373	0	1	0	0	CorrectCommission	0.819076	0.953829	0	0	4.573913e+01
181.860046	1.279557	city	3	1	1.068169	1.068169	0	1	0	0	CorrectCommission	1.071944	0.927572	0	0	4.517391e+01
183.139618	1.279603	city	7	1	1.070685	1.070685	0	1	0	0	CorrectCommission	1.060626	0.897235	0	0	4.460870e+01
184.419205	1.279549	city	8	1	0.964197	0.964197	0	1	0	0	CorrectCommission	1.539736	0.863884	0	0	4.404348e+01
185.698685	1.279430	mountain	4	0	0.000000	1.167163	1	0	0	0	CorrectOmission	0.626554	0.828855	0	0	4.347826e+01
186.978287	1.279755	city	10	1	1.401286	1.401286	0	1	0	0	CorrectCommission	0.426806	0.793580	0	0	4.291304e+01
188.257935	1.279551	city	2	1	1.388266	1.388266	0	1	0	0	CorrectCommission	0.368229	0.759288	1	0	4.234783e+01
189.537735	1.280055	city	1	1	1.197449	1.197449	0	1	0	0	CorrectCommission	0.490294	0.726899	1	0	4.178261e+01
190.817307	1.279068	mountain	9	0	0.000000	1.182464	1	0	0	0	CorrectOmission	0.557714	0.696984	1	0	4.121739e+01
192.096649	1.279643	city	7	1	1.177705	1.177705	0	1	0	0	CorrectCommission	0.579126	0.669737	1	0	4.065217e+01
193.376221	1.279490	city	1	1	1.017565	1.017565	0	1	0	0	CorrectCommission	1.299622	0.645119	1	0	4.008696e+01
194.655792	1.279646	city	10	1	1.177701	1.177701	0	1	0	0	CorrectCommission	0.579143	0.622954	1	0	3.952174e+01
195.935410	1.279599	city	2	1	1.177604	1.177604	0	1	0	0	CorrectCommission	0.579580	0.603081	1	0	3.895652e+01
197.214996	1.279564	city	9	1	1.124276	1.124276	0	1	0	0	CorrectCommission	0.819509	0.585408	1	0	3.839130e+01
198.494568	1.279579	mountain	7	0	0.000000	1.317169	1	0	0	0	CorrectOmission	0.048348	0.569974	1	0	3.782609e+01
199.774124	1.279527	city	5	1	1.443994	1.443994	0	1	0	0	CorrectCommission	0.618960	0.556980	1	0	3.726087e+01
201.053589	1.279427	city	2	1	1.192468	1.192468	0	1	0	0	CorrectCommission	0.512704	0.546676	1	0	3.669565e+01
202.333191	1.279777	city	4	1	1.230326	1.230326	0	1	0	0	CorrectCommission	0.342372	0.539349	1	0	3.613043e+01
203.612869	1.279577	city	10	1	1.197358	1.197358	0	1	0	0	CorrectCommission	0.490701	0.535258	1	0	3.556522e+01
204.892410	1.279507	city	5	1	1.390751	1.390751	0	1	0	0	CorrectCommission	0.379409	0.534554	1	0	35
206.171967	1.279582	city	6	1	1.444318	1.444318	0	1	0	0	CorrectCommission	0.620415	0.537270	1	0	3.443478e+01
207.451569	1.279641	city	2	1	1.498079	1.498079	0	1	0	0	CorrectCommission	0.862296	0.543273	1	0	3.386957e+01
208.731201	1.279609	city	10	1	1.177566	1.177566	0	1	0	0	CorrectCommission	0.579750	0.552259	1	0	3.330435e+01
210.010788	1.279575	city	6	1	1.230554	1.230554	0	1	0	0	CorrectCommission	0.341347	0.563770	1	0	3.273913e+01
211.290314	1.279465	city	5	1	1.250341	1.250341	0	1	0	0	CorrectCommission	0.252323	0.577205	1	0	3.217391e+01
212.569885	1.279683	city	6	1	1.354930	1.354930	0	1	0	0	CorrectCommission	0.218245	0.591873	1	0	3.160870e+01
213.849518	1.279574	city	5	1	1.236218	1.236218	0	1	0	0	CorrectCommission	0.315864	0.607100	1	0	3.104348e+01
215.129013	1.279429	city	8	1	1.017441	1.017441	0	1	0	0	CorrectCommission	1.300181	0.622303	1	0	3.047826e+01
216.408615	1.279757	mountain	1	1	1.124490	1.124490	0	0	1	0	CommissionError	0.818548	0.637063	1	0	2.991304e+01
217.688263	1.279548	city	1	1	1.124335	1.124335	0	1	0	0	CorrectCommission	0.819247	0.651232	1	0	2.934783e+01
218.967834	1.279601	city	5	1	1.602729	1.602729	0	1	0	0	CorrectCommission	1.333136	0.664894	1	0	2.878261e+01
220.247421	1.279577	city	1	1	1.443923	1.443923	0	1	0	0	CorrectCommission	0.618639	0.678299	1	0	2.821739e+01
221.527008	1.279587	city	6	1	1.346959	1.346959	0	1	0	0	CorrectCommission	0.182380	0.691746	1	0	2.765217e+01
222.806564	1.279545	city	4	1	1.261975	1.261975	0	1	0	0	CorrectCommission	0.199978	0.705433	1	0	2.708696e+01
224.086151	1.279607	city	8	1	1.177583	1.177583	0	1	0	0	CorrectCommission	0.579671	0.719369	1	0	2.652174e+01
225.365738	1.279591	city	9	1	1.231181	1.231181	0	1	0	0	CorrectCommission	0.338526	0.733310	1	0	2.595652e+01
226.645309	1.279535	city	3	1	1.127923	1.127923	0	1	0	0	CorrectCommission	0.803103	0.746879	1	0	2.539130e+01
227.924866	1.279584	city	1	1	1.607873	1.607873	0	1	0	0	CorrectCommission	1.356281	0.759641	1	0	2.482609e+01
229.204407	1.279496	city	2	1	1.444290	1.444290	0	1	0	0	CorrectCommission	0.620289	0.771299	0	0	2.426087e+01
230.483994	1.279684	city	1	1	1.710274	1.710274	0	1	0	0	CorrectCommission	1.816999	0.781902	0	0	2.369565e+01
231.763626	1.279584	city	10	1	1.204617	1.204617	0	1	0	0	CorrectCommission	0.458043	0.791862	0	0	2.313043e+01
233.043213	1.279573	city	9	1	1.497601	1.497601	0	1	0	0	CorrectCommission	0.860145	0.802062	0	0	2.256522e+01
233.682999	8.450560	break	0	0	0.000000	1.528725	0	0	0	0	ThoughtProbe	1.000178	0.813622	0	22	22
242.773331	1.279557	city	5	1	1.450050	1.450050	0	1	0	0	CorrectCommission	0.646207	0.827758	0	0	2.211765e+01
244.052917	1.279613	city	7	1	1.413639	1.413639	0	1	0	0	CorrectCommission	0.482384	0.845567	0	0	2.223529e+01
245.339096	1.292729	city	2	1	1.190376	1.190376	0	1	0	0	CorrectCommission	0.522113	0.867755	0	0	2.235294e+01
246.625336	1.279750	city	8	1	1.405923	1.405923	0	1	0	0	CorrectCommission	0.447668	0.894510	0	0	2.247059e+01
247.904999	1.279582	city	3	1	1.289088	1.289088	0	1	0	0	CorrectCommission	0.077990	0.925439	0	0	2.258824e+01
249.184570	1.279575	mountain	9	0	0.000000	1.438790	1	0	0	0	CorrectOmission	0.595546	0.959650	0	0	2.270588e+01
250.464081	1.279445	city	5	1	1.695777	1.695777	0	1	0	0	CorrectCommission	1.751775	0.995854	0	0	2.282353e+01
251.750320	1.293041	city	7	1	1.900797	1.900797	0	1	0	0	CorrectCommission	2.674195	1.032574	0	0	2.294118e+01
253.043259	1.292825	city	4	1	1.685745	1.685745	0	1	0	0	CorrectCommission	1.706639	1.068277	0	0	2.305882e+01
254.329422	1.279505	city	10	1	1.400623	1.400623	0	1	0	0	CorrectCommission	0.423824	1.101459	0	0	2.317647e+01
255.608963	1.279578	city	1	1	1.498244	1.498244	0	1	0	0	CorrectCommission	0.863037	1.130645	0	0	2.329412e+01
256.888550	1.279585	city	9	1	1.242806	1.242806	0	1	0	0	CorrectCommission	0.286224	1.154324	0	0	2.341176e+01
258.168121	1.279572	city	6	1	1.080785	1.080785	0	1	0	0	CorrectCommission	1.015184	1.170955	0	0	2.352941e+01
259.447784	1.279719	city	2	1	1.036803	1.036803	0	1	0	0	CorrectCommission	1.213066	1.179043	0	0	2.364706e+01
260.727448	1.279614	city	8	1	1.509121	1.509121	0	1	0	0	CorrectCommission	0.911975	1.177354	0	0	2.376471e+01
262.007019	1.279544	mountain	8	0	0.000000	1.732339	1	0	0	0	CorrectOmission	1.916275	1.165174	0	0	2.388235e+01
263.286591	1.279603	city	5	1	1.821673	1.821673	0	1	0	0	CorrectCommission	2.318206	1.142611	0	0	24
264.566193	1.279571	city	9	1	1.892338	1.892338	0	1	0	0	CorrectCommission	2.636140	1.110881	0	0	2.411765e+01
265.845764	1.279574	city	8	1	1.558484	1.558484	0	1	0	0	CorrectCommission	1.134071	1.072361	0	0	2.423529e+01
267.125305	1.279516	city	9	1	1.236355	1.236355	0	1	0	0	CorrectCommission	0.315245	1.030499	0	0	2.435294e+01
268.404877	1.279655	city	5	1	1.096273	1.096273	0	1	0	0	CorrectCommission	0.945500	0.989418	0	0	2.447059e+01
269.684418	1.279412	city	9	1	1.242788	1.242788	0	1	0	0	CorrectCommission	0.286304	0.953389	0	0	2.458824e+01
270.963989	1.279713	city	8	1	1.449944	1.449944	0	1	0	0	CorrectCommission	0.645727	0.926287	0	0	2.470588e+01
272.243561	1.279433	city	5	1	1.284166	1.284166	0	1	0	0	CorrectCommission	0.100138	0.911029	0	0	2.482353e+01
273.523132	1.279732	city	7	1	1.257654	1.257654	0	1	0	0	CorrectCommission	0.219420	0.909185	0	0	2.494118e+01
274.816040	1.306071	city	3	1	1.226119	1.226119	0	1	0	0	CorrectCommission	0.361299	0.920794	0	0	2.505882e+01
276.108856	1.279579	city	4	1	1.038382	1.038382	0	1	0	0	CorrectCommission	1.205962	0.944409	0	0	2.517647e+01
277.388489	1.279704	city	6	1	1.027966	1.027966	0	1	0	0	CorrectCommission	1.252828	0.977334	0	0	2.529412e+01
278.674744	1.292788	city	10	1	1.155206	1.155206	0	1	0	0	CorrectCommission	0.680351	1.016056	0	0	2.541176e+01
279.967621	1.292957	city	3	1	1.093869	1.093869	0	1	0	0	CorrectCommission	0.956315	1.056749	0	0	2.552941e+01
281.253876	1.279527	city	9	1	0.855740	0.855740	0	1	0	0	CorrectCommission	2.027701	1.095754	0	0	2.564706e+01
282.546844	1.306417	city	4	1	1.170787	1.170787	0	1	0	0	CorrectCommission	0.610249	1.129992	0	0	2.576471e+01
283.839813	1.279561	city	8	1	0.805006	0.805006	0	1	0	0	CorrectCommission	2.255962	1.157268	0	0	2.588235e+01
284.479614	10.996321	break	0	1	0.829720	0.829720	0	0	0	0	ThoughtProbe	2.144772	1.176280	0	26	26
296.115753	1.279667	city	4	1	1.182742	1.182742	0	1	0	0	CorrectCommission	0.556460	1.186619	0	0	2.587500e+01
297.395508	1.279814	city	5	1	1.092606	1.092606	0	1	0	0	CorrectCommission	0.961999	1.188560	0	0	2.575000e+01
298.675079	1.279323	city	2	1	1.141343	1.141343	0	1	0	0	CorrectCommission	0.742721	1.182728	0	0	2.562500e+01
299.954529	1.279607	city	5	1	0.925663	0.925663	0	1	0	0	CorrectCommission	1.713105	1.169860	0	0	2.550000e+01
301.234100	1.279543	city	8	1	1.131937	1.131937	0	1	0	0	CorrectCommission	0.785041	1.150531	0	0	2.537500e+01
302.513672	1.279604	city	2	1	1.022419	1.022419	0	1	0	0	CorrectCommission	1.277785	1.125101	0	0	2.525000e+01
303.819916	1.332843	city	8	1	0.937991	0.937991	0	1	0	0	CorrectCommission	1.657641	1.093633	0	0	2.512500e+01
305.126068	1.279514	city	4	1	1.137445	1.137445	0	1	0	0	CorrectCommission	0.760261	1.056015	0	0	25
306.405670	1.279695	city	8	1	1.027382	1.027382	0	1	0	0	CorrectCommission	1.255452	1.012122	0	0	2.487500e+01
307.685242	1.279410	city	1	1	1.391542	1.391542	0	1	0	0	CorrectCommission	0.382967	0.962019	0	0	2.475000e+01
308.964813	1.279752	city	10	1	1.629174	1.629174	0	1	0	0	CorrectCommission	1.452115	0.906175	0	0	2.462500e+01
310.244446	1.279513	mountain	8	0	0.000000	1.673729	1	0	0	0	CorrectOmission	1.652575	0.845583	0	0	2.450000e+01
311.530701	1.292957	mountain	7	0	0.000000	1.578849	1	0	0	0	CorrectOmission	1.225697	0.781842	0	0	2.437500e+01
312.816864	1.279414	city	9	1	1.398179	1.398179	0	1	0	0	CorrectCommission	0.412828	0.717127	1	0	2.425000e+01
314.096436	1.279739	city	10	1	1.185360	1.185360	0	1	0	0	CorrectCommission	0.544681	0.654002	1	0	2.412500e+01
315.376038	1.279453	city	5	1	1.240551	1.240551	0	1	0	0	CorrectCommission	0.296367	0.595169	1	0	24
316.662201	1.292885	city	7	1	1.317939	1.317939	0	1	0	0	CorrectCommission	0.051814	0.543201	1	0	2.387500e+01
317.948517	1.279752	city	2	1	1.311236	1.311236	0	1	0	0	CorrectCommission	0.021658	0.500275	1	0	2.375000e+01
319.234802	1.292797	city	7	1	1.363362	1.363362	0	1	0	0	CorrectCommission	0.256182	0.467872	1	0	2.362500e+01
320.521027	1.279674	city	2	1	1.404619	1.404619	0	1	0	0	CorrectCommission	0.441805	0.446693	1	0	2.350000e+01
321.800659	1.279534	city	10	1	1.230885	1.230885	0	1	0	0	CorrectCommission	0.339857	0.436570	1	0	2.337500e+01
323.080139	1.279481	city	8	1	1.318667	1.318667	0	1	0	0	CorrectCommission	0.055091	0.436555	1	0	2.325000e+01
324.366425	1.293052	city	6	1	1.203717	1.203717	0	1	0	0	CorrectCommission	0.462089	0.445084	1	0	2.312500e+01
325.652740	1.279576	city	4	1	1.294371	1.294371	0	1	0	0	CorrectCommission	0.054223	0.460135	1	0	23
326.932251	1.279466	city	6	1	1.080639	1.080639	0	1	0	0	CorrectCommission	1.015840	0.479482	1	0	2.287500e+01
328.211853	1.279712	city	4	1	1.400833	1.400833	0	1	0	0	CorrectCommission	0.424768	0.500893	1	0	2.275000e+01
329.498138	1.292903	mountain	5	0	0.000000	1.411808	1	0	0	0	CorrectOmission	0.474149	0.522399	1	0	2.262500e+01
330.784424	1.279646	city	7	1	1.249517	1.249517	0	1	0	0	CorrectCommission	0.256031	0.542443	1	0	2.250000e+01
332.070648	1.292823	city	5	1	1.049908	1.049908	0	1	0	0	CorrectCommission	1.154104	0.559992	1	0	2.237500e+01
333.370178	1.306237	city	7	1	1.106799	1.106799	0	1	0	0	CorrectCommission	0.898142	0.574583	1	0	2.225000e+01
334.663116	1.279601	city	5	1	1.083614	1.083614	0	1	0	0	CorrectCommission	1.002455	0.586312	1	0	2.212500e+01
335.949280	1.292773	city	1	1	1.198566	1.198566	0	1	0	0	CorrectCommission	0.485266	0.595730	1	0	22
337.255493	1.319616	city	9	1	1.216471	1.216471	0	1	0	0	CorrectCommission	0.404708	0.603671	1	0	2.187500e+01
338.561798	1.292985	city	7	1	1.263202	1.263202	0	1	0	0	CorrectCommission	0.194459	0.611056	1	0	2.175000e+01
339.848083	1.279579	city	8	1	1.338452	1.338452	0	1	0	0	CorrectCommission	0.144108	0.618737	1	0	2.162500e+01
341.127655	1.279565	city	4	1	1.356631	1.356631	0	1	0	0	CorrectCommission	0.225898	0.627338	1	0	2.150000e+01
342.413879	1.292932	city	7	1	1.687110	1.687110	0	1	0	0	CorrectCommission	1.712780	0.637163	1	0	2.137500e+01
343.700134	1.279551	city	1	1	1.567260	1.567260	0	1	0	0	CorrectCommission	1.173556	0.648088	1	0	2.125000e+01
344.979645	1.279445	city	4	1	1.386969	1.386969	0	1	0	0	CorrectCommission	0.362394	0.659658	1	0	2.112500e+01
349.371521	7.504331	break	0	0	0.000000	1.294292	0	0	0	0	ThoughtProbe	0.054576	0.671106	1	21	21
353.770111	1.292884	city	9	1	1.244181	1.244181	0	1	0	0	CorrectCommission	0.280037	0.681444	1	0	2.121739e+01
355.056244	1.279328	city	10	1	1.191585	1.191585	0	1	0	0	CorrectCommission	0.516676	0.689589	1	0	2.143478e+01
356.349091	1.306379	city	1	1	0.993422	0.993422	0	1	0	0	CorrectCommission	1.408248	0.694560	1	0	2.165217e+01
357.642151	1.279736	city	6	1	1.187880	1.187880	0	1	0	0	CorrectCommission	0.533346	0.695637	1	0	2.186957e+01
358.921722	1.279454	city	8	1	0.969199	0.969199	0	1	0	0	CorrectCommission	1.517230	0.692558	1	0	2.208696e+01
360.207886	1.292853	city	10	1	1.212653	1.212653	0	1	0	0	CorrectCommission	0.421888	0.685539	1	0	2.230435e+01
361.494202	1.279762	city	7	1	1.635979	1.635979	0	1	0	0	CorrectCommission	1.482734	0.675328	1	0	2.252174e+01
362.780518	1.292878	mountain	10	0	0.000000	1.505581	1	0	0	0	CorrectOmission	0.896050	0.663039	1	0	2.273913e+01
364.066650	1.279382	city	2	1	1.248134	1.248134	0	1	0	0	CorrectCommission	0.262251	0.650021	1	0	2.295652e+01
365.359558	1.306446	city	4	1	1.290313	1.290313	0	1	0	0	CorrectCommission	0.072479	0.637571	1	0	2.317391e+01
366.665833	1.306109	city	3	1	1.261634	1.261634	0	1	0	0	CorrectCommission	0.201513	0.626679	1	0	2.339130e+01
367.958740	1.279699	mountain	5	0	0.000000	1.265055	1	0	0	0	CorrectOmission	0.186121	0.617865	1	0	2.360870e+01
369.251709	1.306233	city	2	1	1.243628	1.243628	0	1	0	0	CorrectCommission	0.282524	0.611133	1	0	2.382609e+01
370.551208	1.292768	city	10	1	1.140406	1.140406	0	1	0	0	CorrectCommission	0.746938	0.606051	1	0	2.404348e+01
371.837463	1.279752	city	4	1	1.093107	1.093107	0	1	0	0	CorrectCommission	0.959746	0.601874	1	0	2.426087e+01
373.117126	1.279576	city	7	1	0.872895	0.872895	0	1	0	0	CorrectCommission	1.950518	0.597792	1	0	2.447826e+01
374.396698	1.279556	city	6	1	1.192191	1.192191	0	1	0	0	CorrectCommission	0.513950	0.593099	1	0	2.469565e+01
375.676270	1.279583	mountain	2	0	0.000000	1.291270	1	0	0	0	CorrectOmission	0.068174	0.587424	1	0	2.491304e+01
376.955841	1.279550	city	4	1	1.243962	1.243962	0	1	0	0	CorrectCommission	0.281020	0.580698	1	0	2.513043e+01
378.235413	1.279605	city	5	1	1.124097	1.124097	0	1	0	0	CorrectCommission	0.820317	0.573199	1	0	2.534783e+01
379.514923	1.279442	city	9	1	1.311605	1.311605	0	1	0	0	CorrectCommission	0.023317	0.565534	1	0	2.556522e+01
380.794464	1.279582	city	1	1	1.186469	1.186469	0	1	0	0	CorrectCommission	0.539694	0.558550	1	0	2.578261e+01
382.074097	1.279711	city	8	1	1.139725	1.139725	0	1	0	0	CorrectCommission	0.750002	0.553213	1	0	26
383.360413	1.292927	city	2	1	1.048244	1.048244	0	1	0	0	CorrectCommission	1.161590	0.550532	1	0	2.621739e+01
384.646667	1.279565	mountain	4	0	0.000000	1.163561	1	0	0	0	CorrectOmission	0.642761	0.551459	1	0	2.643478e+01
385.926239	1.279573	city	7	1	1.308053	1.308053	0	1	0	0	CorrectCommission	0.007337	0.556799	1	0	2.665217e+01
387.232483	1.332921	city	3	1	1.304101	1.304101	0	1	0	0	CorrectCommission	0.010447	0.567059	1	0	2.686957e+01
388.538727	1.279573	city	5	1	1.198161	1.198161	0	1	0	0	CorrectCommission	0.487090	0.582379	1	0	2.708696e+01
389.818298	1.279553	city	7	1	1.468901	1.468901	0	1	0	0	CorrectCommission	0.731018	0.602410	1	0	2.730435e+01
391.111206	1.306270	city	5	1	1.483555	1.483555	0	1	0	0	CorrectCommission	0.796951	0.626329	1	0	2.752174e+01
392.410767	1.292856	city	10	1	1.360795	1.360795	0	1	0	0	CorrectCommission	0.244633	0.652845	1	0	2.773913e+01
393.710266	1.306169	city	8	1	1.373992	1.373992	0	1	0	0	CorrectCommission	0.304006	0.680303	1	0	2.795652e+01
395.003204	1.279673	city	4	1	1.565152	1.565152	0	1	0	0	CorrectCommission	1.164070	0.706811	1	0	2.817391e+01
396.289490	1.292925	city	2	1	1.205511	1.205511	0	1	0	0	CorrectCommission	0.454019	0.730420	1	0	2.839130e+01
397.575745	1.279589	city	5	1	1.071645	1.071645	0	1	0	0	CorrectCommission	1.056306	0.749378	1	0	2.860870e+01
398.868591	1.306114	city	4	1	1.056554	1.056554	0	1	0	0	CorrectCommission	1.124204	0.762297	1	0	2.882609e+01
400.168182	1.293026	city	8	1	0.906466	0.906466	0	1	0	0	CorrectCommission	1.799474	0.768317	0	0	2.904348e+01
401.461060	1.292733	city	10	1	1.155987	1.155987	0	1	0	0	CorrectCommission	0.676837	0.767173	0	0	2.926087e+01
402.760620	1.306420	city	2	1	1.250449	1.250449	0	1	0	0	CorrectCommission	0.251833	0.759288	1	0	2.947826e+01
404.066956	1.306207	city	7	1	1.061243	1.061243	0	1	0	0	CorrectCommission	1.103107	0.745657	1	0	2.969565e+01
405.366455	1.292843	city	5	1	1.204499	1.204499	0	1	0	0	CorrectCommission	0.458571	0.727716	1	0	2.991304e+01
406.665955	1.306137	city	9	1	1.457063	1.457063	0	1	0	0	CorrectCommission	0.677756	0.707221	1	0	3.013043e+01
407.965576	1.293078	city	1	1	1.375918	1.375918	0	1	0	0	CorrectCommission	0.312670	0.686053	1	0	3.034783e+01
409.265228	1.306255	city	10	1	1.652720	1.652720	0	1	0	0	CorrectCommission	1.558056	0.666050	1	0	3.056522e+01
410.558044	1.279396	city	1	1	1.456302	1.456302	0	1	0	0	CorrectCommission	0.674335	0.648809	1	0	3.078261e+01
411.197754	8.703954	break	0	0	0.000000	1.278319	0	0	0	0	ThoughtProbe	0.126442	0.635602	1	31	31
420.548096	1.292787	city	10	1	1.215047	1.215047	0	1	0	0	CorrectCommission	0.411116	0.627227	1	0	3.061765e+01
421.834351	1.279714	city	2	1	1.362760	1.362760	0	1	0	0	CorrectCommission	0.253471	0.623950	1	0	3.023529e+01
423.134003	1.319564	city	9	1	1.463050	1.463050	0	1	0	0	CorrectCommission	0.704696	0.625499	1	0	2.985294e+01
424.446869	1.306165	city	10	1	1.278798	1.278798	0	1	0	0	CorrectCommission	0.124287	0.631171	1	0	2.947059e+01
425.739685	1.279514	city	4	1	1.401479	1.401479	0	1	0	0	CorrectCommission	0.427674	0.639993	1	0	2.908824e+01
427.019318	1.279728	mountain	2	0	0.000000	1.493992	1	0	0	0	CorrectOmission	0.843908	0.650941	1	0	2.870588e+01
428.298889	1.279400	city	3	1	1.524184	1.524184	0	1	0	0	CorrectCommission	0.979747	0.663190	1	0	2.832353e+01
429.578461	1.279762	city	1	1	1.459899	1.459899	0	1	0	0	CorrectCommission	0.690518	0.676301	1	0	2.794118e+01
430.858124	1.279578	city	3	1	1.730386	1.730386	0	1	0	0	CorrectCommission	1.907489	0.690277	1	0	2.755882e+01
432.137695	1.279568	city	8	1	1.473598	1.473598	0	1	0	0	CorrectCommission	0.752153	0.705551	1	0	2.717647e+01
433.430603	1.306258	city	1	1	1.218689	1.218689	0	1	0	0	CorrectCommission	0.394730	0.722882	1	0	2.679412e+01
434.723541	1.279571	city	6	1	1.298447	1.298447	0	1	0	0	CorrectCommission	0.035884	0.743026	1	0	2.641176e+01
436.029755	1.332880	city	9	1	1.257651	1.257651	0	1	0	0	CorrectCommission	0.219432	0.766491	0	0	2.602941e+01
437.342651	1.292929	city	6	1	1.151684	1.151684	0	1	0	0	CorrectCommission	0.696199	0.793263	0	0	2.564706e+01
438.635590	1.292904	city	1	1	1.421307	1.421307	0	1	0	0	CorrectCommission	0.516884	0.822688	0	0	2.526471e+01
439.921814	1.279562	mountain	6	0	0.000000	1.459648	1	0	0	0	CorrectOmission	0.689391	0.853453	0	0	2.488235e+01
441.208038	1.292921	city	7	1	1.461057	1.461057	0	1	0	0	CorrectCommission	0.695728	0.883747	0	0	2.450000e+01
442.494324	1.279607	city	1	1	1.619881	1.619881	0	1	0	0	CorrectCommission	1.410306	0.911520	0	0	2.411765e+01
443.773895	1.279538	city	10	1	1.679430	1.679430	0	1	0	0	CorrectCommission	1.678228	0.934763	0	0	2.373529e+01
445.053375	1.279438	city	7	1	1.674477	1.674477	0	1	0	0	CorrectCommission	1.655942	0.951808	0	0	2.335294e+01
446.339630	1.293067	city	9	1	1.689566	1.689566	0	1	0	0	CorrectCommission	1.723831	0.961516	0	0	2.297059e+01
447.632599	1.292871	city	10	1	1.365417	1.365417	0	1	0	0	CorrectCommission	0.265426	0.963384	0	0	2.258824e+01
448.925507	1.292927	city	6	1	1.476542	1.476542	0	1	0	0	CorrectCommission	0.765399	0.957537	0	0	2.220588e+01
450.218414	1.292927	city	1	1	1.312720	1.312720	0	1	0	0	CorrectCommission	0.028334	0.944581	0	0	2.182353e+01
451.518005	1.306219	city	2	1	1.106727	1.106727	0	1	0	0	CorrectCommission	0.898465	0.925550	0	0	2.144118e+01
452.810913	1.279613	city	10	1	0.872223	0.872223	0	1	0	0	CorrectCommission	1.953542	0.901771	0	0	2.105882e+01
454.090393	1.279376	city	8	1	0.876701	0.876701	0	1	0	0	CorrectCommission	1.933394	0.874797	0	0	2.067647e+01
455.369965	1.279768	city	2	1	1.356016	1.356016	0	1	0	0	CorrectCommission	0.223128	0.846340	0	0	2.029412e+01
456.656219	1.292733	city	6	1	1.356553	1.356553	0	1	0	0	CorrectCommission	0.225545	0.818233	0	0	1.991176e+01
457.949127	1.293057	city	2	1	1.048236	1.048236	0	1	0	0	CorrectCommission	1.161630	0.792280	0	0	1.952941e+01
459.242126	1.292932	city	10	1	1.311882	1.311882	0	1	0	0	CorrectCommission	0.024564	0.770126	0	0	1.914706e+01
460.528290	1.279424	city	6	1	1.631664	1.631664	0	1	0	0	CorrectCommission	1.463317	0.753217	1	0	1.876471e+01
461.814453	1.292912	city	10	1	1.255412	1.255412	0	1	0	0	CorrectCommission	0.229506	0.742552	1	0	1.838235e+01
466.332977	7.744102	break	0	0	0.000000	1.153956	0	0	0	0	ThoughtProbe	0.685973	0.738655	1	18	18
470.844849	1.279656	city	2	1	1.241178	1.241178	0	1	0	0	CorrectCommission	0.293545	0.741404	1	0	1.789130e+01
472.124512	1.279666	mountain	2	0	0.000000	1.430960	1	0	0	0	CorrectOmission	0.560316	0.750043	1	0	1.778261e+01
473.404083	1.279468	city	9	1	1.508417	1.508417	0	1	0	0	CorrectCommission	0.908810	0.763197	1	0	1.767391e+01
474.703644	1.319670	mountain	10	0	0.000000	1.258667	1	0	0	0	CorrectOmission	0.214862	0.779007	0	0	1.756522e+01
476.016602	1.306238	mountain	7	1	1.098591	1.098591	0	0	1	0	CommissionError	0.935073	0.795326	0	0	1.745652e+01
477.309509	1.279565	city	10	1	1.445071	1.445071	0	1	0	0	CorrectCommission	0.623803	0.809962	0	0	1.734783e+01
478.595764	1.292929	city	1	1	1.652419	1.652419	0	1	0	0	CorrectCommission	1.556702	0.820943	0	0	1.723913e+01
479.908661	1.332874	city	10	1	1.716204	1.716204	0	1	0	0	CorrectCommission	1.843679	0.826756	0	0	1.713043e+01
481.214874	1.279579	city	7	1	1.536021	1.536021	0	1	0	0	CorrectCommission	1.033004	0.826555	0	0	1.702174e+01
482.507782	1.306237	city	10	1	1.219392	1.219392	0	1	0	0	CorrectCommission	0.391568	0.820262	0	0	1.691304e+01
483.800659	1.279516	city	6	1	1.233257	1.233257	0	1	0	0	CorrectCommission	0.329184	0.808508	0	0	1.680435e+01
485.080261	1.279667	city	4	1	1.090924	1.090924	0	1	0	0	CorrectCommission	0.969566	0.792548	0	0	1.669565e+01
486.359863	1.279576	city	7	1	1.141059	1.141059	0	1	0	0	CorrectCommission	0.743999	0.774077	0	0	1.658696e+01
487.659454	1.319562	city	6	1	1.565627	1.565627	0	1	0	0	CorrectCommission	1.166208	0.755047	1	0	1.647826e+01
488.965668	1.292905	city	1	1	1.540383	1.540383	0	1	0	0	CorrectCommission	1.052631	0.737399	1	0	1.636957e+01
490.258606	1.292922	city	3	1	1.200285	1.200285	0	1	0	0	CorrectCommission	0.477530	0.722884	1	0	1.626087e+01
491.551422	1.292728	city	7	1	1.208000	1.208000	0	1	0	0	CorrectCommission	0.442819	0.712811	1	0	1.615217e+01
492.844238	1.292891	city	10	1	1.259319	1.259319	0	1	0	0	CorrectCommission	0.211926	0.707833	1	0	1.604348e+01
494.143829	1.306310	city	3	1	1.261923	1.261923	0	1	0	0	CorrectCommission	0.200213	0.707945	1	0	1.593478e+01
495.436829	1.279694	city	8	1	1.196857	1.196857	0	1	0	0	CorrectCommission	0.492956	0.712437	1	0	1.582609e+01
496.736450	1.319552	city	10	1	1.153675	1.153675	0	1	0	0	CorrectCommission	0.687238	0.720094	1	0	1.571739e+01
498.036011	1.279592	city	8	1	1.092011	1.092011	0	1	0	0	CorrectCommission	0.964676	0.729412	1	0	1.560870e+01
499.322266	1.292861	city	2	1	1.036257	1.036257	0	1	0	0	CorrectCommission	1.215522	0.738885	1	0	1.550000e+01
500.628479	1.319568	city	5	1	1.217858	1.217858	0	1	0	0	CorrectCommission	0.398470	0.747347	1	0	1.539130e+01
501.934723	1.292950	mountain	9	1	0.864029	0.864029	0	0	1	0	CommissionError	1.990409	0.754239	1	0	1.528261e+01
503.220947	1.279497	city	2	1	1.369750	1.369750	0	1	0	0	CorrectCommission	0.284922	0.759740	1	0	1.517391e+01
504.513855	1.306308	city	5	1	1.198598	1.198598	0	1	0	0	CorrectCommission	0.485124	0.764865	0	0	1.506522e+01
505.813385	1.292765	city	2	1	0.968335	0.968335	0	1	0	0	CorrectCommission	1.521116	0.771253	0	0	1.495652e+01
507.099579	1.279625	city	9	1	1.138887	1.138887	0	1	0	0	CorrectCommission	0.753772	0.780895	0	0	1.484783e+01
508.392578	1.306352	city	3	1	1.191098	1.191098	0	1	0	0	CorrectCommission	0.518868	0.795802	0	0	1.473913e+01
509.712097	1.332710	city	4	1	1.302889	1.302889	0	1	0	0	CorrectCommission	0.015898	0.817556	0	0	1.463043e+01
511.018280	1.279625	city	1	1	1.298134	1.298134	0	1	0	0	CorrectCommission	0.037293	0.846918	0	0	1.452174e+01
512.311218	1.306322	city	7	1	1.171780	1.171780	0	1	0	0	CorrectCommission	0.605780	0.883544	0	0	1.441304e+01
513.604248	1.279632	city	8	1	1.086304	1.086304	0	1	0	0	CorrectCommission	0.990352	0.925809	0	0	1.430435e+01
514.890503	1.292945	city	2	1	0.971090	0.971090	0	1	0	0	CorrectCommission	1.508724	0.970848	0	0	1.419565e+01
516.176758	1.279519	city	10	1	0.974190	0.974190	0	1	0	0	CorrectCommission	1.494774	1.014711	0	0	1.408696e+01
517.462952	1.292937	city	3	1	1.245182	1.245182	0	1	0	0	CorrectCommission	0.275533	1.052709	0	0	1.397826e+01
518.762573	1.306233	city	8	1	1.196673	1.196673	0	1	0	0	CorrectCommission	0.493783	1.079924	0	0	1.386957e+01
520.068787	1.306239	city	7	1	1.045150	1.045150	0	1	0	0	CorrectCommission	1.175513	1.091711	0	0	1.376087e+01
521.394958	1.346150	city	3	1	0.780216	0.780216	0	1	0	0	CorrectCommission	2.367496	1.084287	0	0	1.365217e+01
522.727844	1.319514	city	5	1	0.598026	0.598026	0	1	0	0	CorrectCommission	3.187201	1.055249	0	0	1.354348e+01
524.040771	1.306363	city	9	1	0.948774	0.948774	0	1	0	0	CorrectCommission	1.609127	1.003951	0	0	1.343478e+01
525.353638	1.319429	city	1	1	1.054299	1.054299	0	1	0	0	CorrectCommission	1.134349	0.931730	0	0	1.332609e+01
526.653259	1.279745	city	4	1	1.408708	1.408708	0	1	0	0	CorrectCommission	0.460201	0.841810	0	0	1.321739e+01
527.946228	1.306180	city	9	1	1.427532	1.427532	0	1	0	0	CorrectCommission	0.544892	0.739058	1	0	1.310870e+01
528.599304	8.863893	break	0	0	0.000000	1.446356	0	0	0	0	ThoughtProbe	0.629584	0.629584	1	13	13
