onset	duration	trial_type	image_type	Press	ReactionTime	ReactionTime_Interpolated	CorrectOmission	CorrectCommission	CommissionError	OmissionError	response_type	nonsmoothVarianceTimeCourse	VarianceTimeCourse	In_the_Zone	ThoughtProbe	ThoughtProbe_Interpolated
0.666326	1.306215	city	3	1	1.125661	1.125661	0	1	0	0	CorrectCommission	0.649992	0.649992	1	0	89
1.959164	1.279463	city	7	1	1.174936	1.174936	0	1	0	0	CorrectCommission	0.463060	0.631746	1	0	89
3.238697	1.279603	city	2	1	1.074084	1.074084	0	1	0	0	CorrectCommission	0.845657	0.613967	1	0	89
4.518333	1.279669	city	1	1	1.234726	1.234726	0	1	0	0	CorrectCommission	0.236233	0.597098	1	0	89
5.797889	1.279443	mountain	10	1	1.308908	1.308908	0	0	1	0	CommissionError	0.045188	0.581576	1	0	89
7.090799	1.306376	city	10	1	0.941302	0.941302	0	1	0	0	CorrectCommission	1.349393	0.567788	1	0	89
8.383742	1.279510	city	4	1	1.238413	1.238413	0	1	0	0	CorrectCommission	0.222247	0.556068	1	0	89
9.663256	1.279517	city	5	1	1.073865	1.073865	0	1	0	0	CorrectCommission	0.846489	0.546733	1	0	89
10.942870	1.279711	city	8	1	1.127605	1.127605	0	1	0	0	CorrectCommission	0.642617	0.540021	1	0	89
12.222444	1.279437	city	5	1	1.236353	1.236353	0	1	0	0	CorrectCommission	0.230062	0.536086	1	0	89
13.501940	1.279555	city	6	1	1.284460	1.284460	0	1	0	0	CorrectCommission	0.047560	0.534947	1	0	89
14.781510	1.279586	mountain	2	0	0.000000	1.451305	1	0	0	0	CorrectOmission	0.585399	0.536458	1	0	89
16.061104	1.279600	city	8	1	1.509534	1.509534	0	1	0	0	CorrectCommission	0.806300	0.540266	1	0	89
17.340763	1.279717	city	7	1	1.231790	1.231790	0	1	0	0	CorrectCommission	0.247374	0.545856	1	0	89
18.620409	1.279575	city	6	1	1.070789	1.070789	0	1	0	0	CorrectCommission	0.858161	0.552603	1	0	89
19.906572	1.292753	city	9	1	1.362608	1.362608	0	1	0	0	CorrectCommission	0.248910	0.559811	1	0	89
21.192747	1.279596	city	4	1	1.461337	1.461337	0	1	0	0	CorrectCommission	0.623455	0.566835	1	0	89
22.472403	1.279714	city	10	1	1.129727	1.129727	0	1	0	0	CorrectCommission	0.634569	0.573184	1	0	89
23.752064	1.279608	city	7	1	1.495449	1.495449	0	1	0	0	CorrectCommission	0.752865	0.578590	1	0	89
25.031643	1.279550	city	4	1	1.496007	1.496007	0	1	0	0	CorrectCommission	0.754982	0.583093	1	0	89
26.311209	1.279582	city	1	1	1.187944	1.187944	0	1	0	0	CorrectCommission	0.413711	0.587073	1	0	89
27.590797	1.279598	mountain	4	0	0.000000	1.073813	1	0	0	0	CorrectOmission	0.846686	0.591268	1	0	89
28.870375	1.279557	city	1	1	1.080221	1.080221	0	1	0	0	CorrectCommission	0.822377	0.596664	1	0	89
30.149868	1.279429	city	5	1	1.133773	1.133773	0	1	0	0	CorrectCommission	0.619216	0.604410	1	0	89
31.429373	1.279578	city	4	1	1.284735	1.284735	0	1	0	0	CorrectCommission	0.046515	0.615667	1	0	89
32.709042	1.279758	city	7	1	1.391261	1.391261	0	1	0	0	CorrectCommission	0.357609	0.631457	1	0	89
33.988655	1.279475	city	2	1	1.301433	1.301433	0	1	0	0	CorrectCommission	0.016830	0.652499	1	0	89
35.268230	1.279670	city	8	1	1.124005	1.124005	0	1	0	0	CorrectCommission	0.656276	0.679080	1	0	89
36.547791	1.279449	city	9	1	0.873927	0.873927	0	1	0	0	CorrectCommission	1.604992	0.710961	1	0	89
37.827362	1.279696	city	10	1	1.456400	1.456400	0	1	0	0	CorrectCommission	0.604725	0.747331	0	0	89
39.107010	1.279600	city	8	1	1.512366	1.512366	0	1	0	0	CorrectCommission	0.817042	0.786840	0	0	89
40.393185	1.292746	city	10	1	1.438101	1.438101	0	1	0	0	CorrectCommission	0.535305	0.827560	0	0	89
41.692665	1.306216	city	2	0	0.000000	1.409385	0	0	0	1	OmissionError	0.426365	0.867126	0	0	89
42.992245	1.292947	city	5	0	0.000000	1.430994	0	0	0	1	OmissionError	0.508343	0.902875	0	0	89
44.278568	1.279701	city	2	0	0.000000	1.507706	0	0	0	1	OmissionError	0.799363	0.932090	0	0	89
45.558140	1.279442	city	8	1	1.644297	1.644297	0	1	0	0	CorrectCommission	1.317546	0.952310	0	0	89
46.844398	1.293069	city	4	1	1.845544	1.845544	0	1	0	0	CorrectCommission	2.081015	0.961621	0	0	89
48.130718	1.279575	city	10	1	1.839682	1.839682	0	1	0	0	CorrectCommission	2.058777	0.958939	0	0	89
49.423626	1.306240	city	1	1	1.703724	1.703724	0	1	0	0	CorrectCommission	1.542993	0.944182	0	0	89
53.575592	6.997690	break	0	0	0.000000	1.272160	0	0	0	0	ThoughtProbe	0.094223	0.918297	0	89	89
57.714230	1.279585	city	9	1	0.926466	0.926466	0	1	0	0	CorrectCommission	1.405674	0.883132	0	0	8.852941e+01
58.993771	1.279496	mountain	2	0	0.000000	1.048119	1	0	0	0	CorrectOmission	0.944163	0.841112	0	0	8.805882e+01
60.279919	1.292805	city	6	1	1.260586	1.260586	0	1	0	0	CorrectCommission	0.138128	0.795010	0	0	8.758824e+01
61.566151	1.279653	city	4	1	1.187339	1.187339	0	1	0	0	CorrectCommission	0.416006	0.747543	0	0	8.711765e+01
62.852474	1.292998	city	2	1	1.202272	1.202272	0	1	0	0	CorrectCommission	0.359356	0.701103	1	0	8.664706e+01
64.138687	1.279428	city	10	1	1.525475	1.525475	0	1	0	0	CorrectCommission	0.866774	0.657596	1	0	8.617647e+01
65.424934	1.293065	city	5	1	1.546199	1.546199	0	1	0	0	CorrectCommission	0.945395	0.618361	1	0	8.570588e+01
66.717926	1.292921	city	8	1	1.313214	1.313214	0	1	0	0	CorrectCommission	0.061523	0.584198	1	0	8.523529e+01
68.004105	1.279430	city	7	1	1.140482	1.140482	0	1	0	0	CorrectCommission	0.593767	0.555504	1	0	8.476471e+01
69.290337	1.293040	city	10	1	1.032570	1.032570	0	1	0	0	CorrectCommission	1.003150	0.532367	1	0	8.429412e+01
70.583313	1.292917	city	8	1	1.365908	1.365908	0	1	0	0	CorrectCommission	0.261428	0.514759	1	0	8.382353e+01
71.876183	1.292813	city	9	1	1.260551	1.260551	0	1	0	0	CorrectCommission	0.138264	0.502707	1	0	8.335294e+01
73.162430	1.279683	city	6	1	1.240907	1.240907	0	1	0	0	CorrectCommission	0.212787	0.496334	1	0	8.288235e+01
74.448662	1.292777	city	3	1	1.190431	1.190431	0	1	0	0	CorrectCommission	0.404274	0.495961	1	0	8.241176e+01
75.734894	1.279693	city	2	1	1.139590	1.139590	0	1	0	0	CorrectCommission	0.597149	0.502083	1	0	8.194118e+01
77.027794	1.306098	city	9	1	1.101306	1.101306	0	1	0	0	CorrectCommission	0.742387	0.515311	1	0	8.147059e+01
78.334038	1.306398	city	5	1	1.122575	1.122575	0	1	0	0	CorrectCommission	0.661700	0.536274	1	0	81
79.633690	1.292909	mountain	5	0	0.000000	1.169009	1	0	0	0	CorrectOmission	0.485543	0.565450	1	0	8.052941e+01
80.933205	1.306124	city	5	1	1.218246	1.218246	0	1	0	0	CorrectCommission	0.298755	0.602954	1	0	8.005882e+01
82.226021	1.279507	city	7	1	1.247921	1.247921	0	1	0	0	CorrectCommission	0.186178	0.648362	1	0	7.958824e+01
83.505646	1.279735	city	4	1	1.253143	1.253143	0	1	0	0	CorrectCommission	0.166365	0.700530	1	0	7.911765e+01
84.785316	1.279606	city	5	1	1.475090	1.475090	0	1	0	0	CorrectCommission	0.675631	0.757575	0	0	7.864706e+01
86.064896	1.279561	city	10	1	1.299554	1.299554	0	1	0	0	CorrectCommission	0.009703	0.816838	0	0	7.817647e+01
87.344467	1.279575	city	8	1	1.036797	1.036797	0	1	0	0	CorrectCommission	0.987116	0.875151	0	0	7.770588e+01
88.630707	1.292912	city	10	1	1.752060	1.752060	0	1	0	0	CorrectCommission	1.726365	0.929068	0	0	7.723529e+01
89.930283	1.306231	city	8	1	1.863392	1.863392	0	1	0	0	CorrectCommission	2.148726	0.975221	0	0	7.676471e+01
91.223106	1.279418	city	4	1	1.681724	1.681724	0	1	0	0	CorrectCommission	1.459536	1.010672	0	0	7.629412e+01
92.502632	1.279634	city	10	1	1.532707	1.532707	0	1	0	0	CorrectCommission	0.894210	1.033202	0	0	7.582353e+01
93.808952	1.333004	city	3	1	1.188719	1.188719	0	1	0	0	CorrectCommission	0.410769	1.041517	0	0	7.535294e+01
95.135231	1.319563	city	6	1	0.876175	0.876175	0	1	0	0	CorrectCommission	1.596464	1.035359	0	0	7.488235e+01
96.434807	1.279578	city	7	1	0.924990	0.924990	0	1	0	0	CorrectCommission	1.411273	1.015468	0	0	7.441176e+01
97.727707	1.306234	city	3	1	1.032602	1.032602	0	1	0	0	CorrectCommission	1.003027	0.983551	0	0	7.394118e+01
99.033951	1.306240	city	9	1	0.805249	0.805249	0	1	0	0	CorrectCommission	1.865533	0.942082	0	0	7.347059e+01
102.192833	5.011534	break	0	1	0.873634	0.873634	0	0	0	0	ThoughtProbe	1.606101	0.894009	0	73	73
105.351715	1.306231	city	10	1	1.270713	1.270713	0	1	0	0	CorrectCommission	0.099712	0.842481	0	0	7.330435e+01
106.657959	1.306248	city	1	1	1.374147	1.374147	0	1	0	0	CorrectCommission	0.292685	0.790551	0	0	7.360870e+01
107.977524	1.332879	city	3	1	1.236643	1.236643	0	1	0	0	CorrectCommission	0.228963	0.740809	0	0	7.391304e+01
109.283745	1.279574	city	1	1	1.246496	1.246496	0	1	0	0	CorrectCommission	0.191584	0.695246	1	0	7.421739e+01
110.563423	1.279772	mountain	1	0	0.000000	1.119897	1	0	0	0	CorrectOmission	0.671858	0.655101	1	0	7.452174e+01
111.869743	1.332866	city	10	1	1.137554	1.137554	0	1	0	0	CorrectCommission	0.604872	0.620915	1	0	7.482609e+01
113.182625	1.292907	city	2	1	1.580174	1.580174	0	1	0	0	CorrectCommission	1.074284	0.592664	1	0	7.513043e+01
114.468880	1.279598	city	3	1	1.352268	1.352268	0	1	0	0	CorrectCommission	0.209681	0.569943	1	0	7.543478e+01
115.768372	1.319393	city	5	1	1.204700	1.204700	0	1	0	0	CorrectCommission	0.350145	0.552236	1	0	7.573913e+01
117.094612	1.333077	city	1	1	1.093198	1.093198	0	1	0	0	CorrectCommission	0.773146	0.539010	1	0	7.604348e+01
118.454254	1.386208	city	3	1	1.079024	1.079024	0	1	0	0	CorrectCommission	0.826918	0.529889	1	0	7.634783e+01
119.813721	1.332731	city	5	1	1.091261	1.091261	0	1	0	0	CorrectCommission	0.780497	0.524643	1	0	7.665217e+01
121.119965	1.279758	city	9	1	1.351881	1.351881	0	1	0	0	CorrectCommission	0.208216	0.523121	1	0	7.695652e+01
122.399544	1.279393	mountain	4	0	0.000000	1.359686	1	0	0	0	CorrectOmission	0.237824	0.525164	1	0	7.726087e+01
123.719101	1.359727	city	9	1	1.288440	1.288440	0	1	0	0	CorrectCommission	0.032459	0.530450	1	0	7.756522e+01
125.045341	1.292747	city	8	1	1.311911	1.311911	0	1	0	0	CorrectCommission	0.056582	0.538414	1	0	7.786957e+01
126.331497	1.279564	city	6	1	1.513037	1.513037	0	1	0	0	CorrectCommission	0.819590	0.548218	1	0	7.817391e+01
127.611153	1.279752	mountain	5	0	0.000000	1.557070	1	0	0	0	CorrectOmission	0.986638	0.558740	1	0	7.847826e+01
128.890808	1.279560	city	3	1	1.482793	1.482793	0	1	0	0	CorrectCommission	0.704854	0.568732	1	0	7.878261e+01
130.177032	1.292900	city	1	1	1.328988	1.328988	0	1	0	0	CorrectCommission	0.121366	0.576981	1	0	7.908696e+01
131.496597	1.346228	city	10	1	1.043889	1.043889	0	1	0	0	CorrectCommission	0.960208	0.582440	1	0	7.939130e+01
132.809494	1.279559	city	6	1	1.449699	1.449699	0	1	0	0	CorrectCommission	0.579303	0.584367	1	0	7.969565e+01
134.095657	1.292762	city	1	1	1.736301	1.736301	0	1	0	0	CorrectCommission	1.666583	0.582470	1	0	80
135.381851	1.279634	city	10	1	1.393873	1.393873	0	1	0	0	CorrectCommission	0.367520	0.576837	1	0	8.030435e+01
136.661438	1.279528	city	9	1	1.405938	1.405938	0	1	0	0	CorrectCommission	0.413290	0.567954	1	0	8.060870e+01
137.947739	1.293069	mountain	9	0	0.000000	1.279168	1	0	0	0	CorrectOmission	0.067636	0.556574	1	0	8.091304e+01
139.267303	1.346059	city	3	1	1.256020	1.256020	0	1	0	0	CorrectCommission	0.155452	0.543625	1	0	8.121739e+01
140.580124	1.279591	city	9	1	1.578953	1.578953	0	1	0	0	CorrectCommission	1.069652	0.530110	1	0	8.152174e+01
141.866455	1.293077	city	7	1	1.214474	1.214474	0	1	0	0	CorrectCommission	0.313063	0.516997	1	0	8.182609e+01
143.179428	1.332878	city	2	1	1.089615	1.089615	0	1	0	0	CorrectCommission	0.786738	0.505263	1	0	8.213043e+01
144.485596	1.279448	city	9	1	1.124948	1.124948	0	1	0	0	CorrectCommission	0.652699	0.495795	1	0	8.243478e+01
145.765137	1.279630	city	6	1	1.246423	1.246423	0	1	0	0	CorrectCommission	0.191859	0.489391	1	0	8.273913e+01
147.044800	1.279688	city	2	1	1.135785	1.135785	0	1	0	0	CorrectCommission	0.611584	0.486726	1	0	8.304348e+01
148.324417	1.279552	city	6	1	1.369513	1.369513	0	1	0	0	CorrectCommission	0.275105	0.488272	1	0	8.334783e+01
149.643890	1.359404	city	8	1	1.311616	1.311616	0	1	0	0	CorrectCommission	0.055463	0.494243	1	0	8.365217e+01
150.970093	1.292988	city	1	1	1.443169	1.443169	0	1	0	0	CorrectCommission	0.554533	0.504498	1	0	8.395652e+01
152.276321	1.319469	city	7	1	1.458808	1.458808	0	1	0	0	CorrectCommission	0.613863	0.518479	1	0	8.426087e+01
153.589172	1.306241	city	2	1	1.381017	1.381017	0	1	0	0	CorrectCommission	0.318747	0.535255	1	0	8.456522e+01
154.882080	1.279576	city	8	1	1.444714	1.444714	0	1	0	0	CorrectCommission	0.560392	0.553529	1	0	8.486957e+01
156.161758	1.279763	city	7	1	1.290608	1.290608	0	1	0	0	CorrectCommission	0.024237	0.571736	1	0	8.517391e+01
157.468079	1.332889	city	8	1	1.062305	1.062305	0	1	0	0	CorrectCommission	0.890344	0.588275	1	0	8.547826e+01
158.787552	1.306056	city	4	1	1.606785	1.606785	0	1	0	0	CorrectCommission	1.175238	0.601693	1	0	8.578261e+01
160.093704	1.306255	city	6	1	1.550226	1.550226	0	1	0	0	CorrectCommission	0.960673	0.610900	1	0	8.608696e+01
161.406708	1.319749	city	7	1	1.270697	1.270697	0	1	0	0	CorrectCommission	0.099770	0.615382	1	0	8.639130e+01
162.713013	1.292870	city	6	1	1.091597	1.091597	0	1	0	0	CorrectCommission	0.779221	0.615307	1	0	8.669565e+01
165.678696	4.638479	break	0	0	0.000000	0.952705	0	0	0	0	ThoughtProbe	1.306132	0.611515	1	87	87
168.637726	1.279579	city	8	1	0.967046	0.967046	0	1	0	0	CorrectCommission	1.251726	0.605422	1	0	8.573529e+01
169.923965	1.292914	city	10	1	1.247644	1.247644	0	1	0	0	CorrectCommission	0.187226	0.598804	1	0	8.447059e+01
171.217987	1.295128	city	9	1	1.342114	1.342114	0	1	0	0	CorrectCommission	0.171163	0.593516	1	0	8.320588e+01
172.537476	1.343835	city	8	1	1.200981	1.200981	0	1	0	0	CorrectCommission	0.364254	0.591106	1	0	8.194118e+01
173.882614	1.346437	city	3	1	1.284322	1.284322	0	1	0	0	CorrectCommission	0.048084	0.592537	1	0	8.067647e+01
175.195602	1.279546	mountain	9	0	0.000000	1.196855	1	0	0	0	CorrectOmission	0.379904	0.598027	1	0	7.941176e+01
176.488464	1.306193	city	5	1	1.112615	1.112615	0	1	0	0	CorrectCommission	0.699483	0.606932	1	0	7.814706e+01
177.801285	1.319426	city	3	1	1.205636	1.205636	0	1	0	0	CorrectCommission	0.346594	0.617916	1	0	7.688235e+01
179.100815	1.279634	city	5	1	1.362175	1.362175	0	1	0	0	CorrectCommission	0.247265	0.629205	1	0	7.561765e+01
180.413712	1.346188	mountain	10	1	1.233430	1.233430	0	0	1	0	CommissionError	0.241153	0.638959	1	0	7.435294e+01
181.733353	1.293077	city	2	1	1.931794	1.931794	0	1	0	0	CorrectCommission	2.408221	0.645692	1	0	7.308824e+01
183.039688	1.319590	city	3	0	0.000000	1.771109	0	0	0	1	OmissionError	1.798634	0.648533	1	0	7.182353e+01
184.339264	1.279558	city	10	1	1.348484	1.348484	0	1	0	0	CorrectCommission	0.195327	0.647580	1	0	7.055882e+01
185.625397	1.292716	city	2	1	1.261025	1.261025	0	1	0	0	CorrectCommission	0.136463	0.643959	1	0	6.929412e+01
186.918289	1.293071	city	6	1	1.541430	1.541430	0	1	0	0	CorrectCommission	0.927303	0.639616	1	0	6.802941e+01
188.211288	1.292912	city	5	1	1.448153	1.448153	0	1	0	0	CorrectCommission	0.573439	0.637103	1	0	6.676471e+01
189.537415	1.359361	city	7	1	1.320104	1.320104	0	1	0	0	CorrectCommission	0.087661	0.639245	1	0	6.550000e+01
190.876892	1.319599	city	10	1	1.152059	1.152059	0	1	0	0	CorrectCommission	0.549848	0.648729	1	0	6.423529e+01
192.189819	1.306231	city	7	1	1.219006	1.219006	0	1	0	0	CorrectCommission	0.295873	0.667697	1	0	6.297059e+01
193.482834	1.279802	city	1	1	1.391707	1.391707	0	1	0	0	CorrectCommission	0.359301	0.697530	1	0	6.170588e+01
194.769241	1.293027	city	6	1	1.324521	1.324521	0	1	0	0	CorrectCommission	0.104418	0.738575	1	0	6.044118e+01
196.062042	1.292575	city	5	1	1.105094	1.105094	0	1	0	0	CorrectCommission	0.728016	0.790104	0	0	5.917647e+01
197.348206	1.279730	city	4	1	0.911933	0.911933	0	1	0	0	CorrectCommission	1.460808	0.850292	0	0	5.791176e+01
198.634521	1.292931	city	2	1	1.214769	1.214769	0	1	0	0	CorrectCommission	0.311945	0.916368	0	0	5.664706e+01
199.934113	1.306235	city	4	1	1.755089	1.755089	0	1	0	0	CorrectCommission	1.737857	0.984801	0	0	5.538235e+01
201.226929	1.279396	city	1	1	1.251652	1.251652	0	1	0	0	CorrectCommission	0.172024	1.051474	0	0	5.411765e+01
202.519775	1.306304	city	6	1	1.536159	1.536159	0	1	0	0	CorrectCommission	0.907306	1.112098	0	0	5.285294e+01
203.819351	1.292837	city	2	1	1.626951	1.626951	0	1	0	0	CorrectCommission	1.251743	1.162456	0	0	5.158824e+01
205.138947	1.346362	city	10	1	1.777927	1.777927	0	1	0	0	CorrectCommission	1.824497	1.198831	0	0	5.032353e+01
206.458588	1.292934	city	5	1	2.022552	2.022552	0	1	0	0	CorrectCommission	2.752528	1.218358	0	0	4.905882e+01
207.758194	1.306259	city	10	0	0.000000	1.603020	0	0	0	1	OmissionError	1.160956	1.219317	0	0	4.779412e+01
209.057770	1.292889	city	1	1	0.981496	0.981496	0	1	0	0	CorrectCommission	1.196908	1.201441	0	0	4.652941e+01
210.350662	1.292908	city	3	1	0.620146	0.620146	0	1	0	0	CorrectCommission	2.567754	1.165881	0	0	4.526471e+01
214.875763	7.757296	break	0	1	0.932335	0.932335	0	0	0	0	ThoughtProbe	1.383408	1.115147	0	44	44
219.400955	1.293084	city	2	1	1.489596	1.489596	0	1	0	0	CorrectCommission	0.730661	1.052958	0	0	4.392500e+01
220.700516	1.306046	city	4	1	1.480394	1.480394	0	1	0	0	CorrectCommission	0.695751	0.983786	0	0	4.385000e+01
222.013321	1.319564	city	3	1	1.567654	1.567654	0	1	0	0	CorrectCommission	1.026787	0.912410	0	0	4.377500e+01
223.332977	1.319732	city	4	1	1.274829	1.274829	0	1	0	0	CorrectCommission	0.084096	0.843443	0	0	4.370000e+01
224.645889	1.306083	city	9	1	1.008565	1.008565	0	1	0	0	CorrectCommission	1.094218	0.780909	0	0	4.362500e+01
225.945496	1.293147	city	4	1	1.236839	1.236839	0	1	0	0	CorrectCommission	0.228220	0.727856	1	0	4.355000e+01
227.251724	1.319319	city	2	1	1.147114	1.147114	0	1	0	0	CorrectCommission	0.568607	0.686213	1	0	4.347500e+01
228.557938	1.293091	city	6	1	1.304457	1.304457	0	1	0	0	CorrectCommission	0.028304	0.656639	1	0	4.340000e+01
229.857590	1.306216	city	9	1	1.395197	1.395197	0	1	0	0	CorrectCommission	0.372543	0.638683	1	0	4.332500e+01
231.163742	1.306081	city	2	1	1.326939	1.326939	0	1	0	0	CorrectCommission	0.113593	0.630951	1	0	4.325000e+01
232.483215	1.332880	city	7	1	1.413564	1.413564	0	1	0	0	CorrectCommission	0.442221	0.631452	1	0	4.317500e+01
233.816116	1.332905	city	6	1	1.454568	1.454568	0	1	0	0	CorrectCommission	0.597775	0.637995	1	0	4.310000e+01
235.122360	1.279609	mountain	2	0	0.000000	1.614608	1	0	0	0	CorrectOmission	1.204917	0.648472	1	0	4.302500e+01
236.401947	1.279543	mountain	7	0	0.000000	1.740441	1	0	0	0	CorrectOmission	1.682286	0.661201	1	0	4.295000e+01
237.688263	1.293097	city	8	1	1.678822	1.678822	0	1	0	0	CorrectCommission	1.448524	0.674976	1	0	4.287500e+01
238.994553	1.319467	city	1	1	1.276507	1.276507	0	1	0	0	CorrectCommission	0.077731	0.689092	1	0	4.280000e+01
240.294006	1.279466	city	8	1	1.301030	1.301030	0	1	0	0	CorrectCommission	0.015302	0.703193	1	0	4.272500e+01
241.586960	1.306429	city	7	1	1.497472	1.497472	0	1	0	0	CorrectCommission	0.760540	0.716992	1	0	4.265000e+01
242.899979	1.319606	city	4	1	1.267607	1.267607	0	1	0	0	CorrectCommission	0.111496	0.730100	1	0	4.257500e+01
244.199554	1.279535	city	6	1	1.309805	1.309805	0	1	0	0	CorrectCommission	0.048592	0.741912	0	0	4.250000e+01
245.492447	1.306256	city	3	1	1.205223	1.205223	0	1	0	0	CorrectCommission	0.348158	0.751556	0	0	4.242500e+01
246.785355	1.279581	mountain	1	0	0.000000	0.815919	1	0	0	0	CorrectOmission	1.825054	0.758050	0	0	4.235000e+01
248.078278	1.306249	city	3	1	0.698434	0.698434	0	1	0	0	CorrectCommission	2.270757	0.760478	0	0	4.227500e+01
249.371185	1.279568	city	6	1	1.409308	1.409308	0	1	0	0	CorrectCommission	0.426073	0.758223	0	0	4.220000e+01
250.657425	1.292903	city	1	1	1.594923	1.594923	0	1	0	0	CorrectCommission	1.130240	0.751142	0	0	4.212500e+01
251.956909	1.306082	city	5	1	1.598612	1.598612	0	1	0	0	CorrectCommission	1.144232	0.739524	0	0	4.205000e+01
253.269821	1.319729	city	1	1	1.264925	1.264925	0	1	0	0	CorrectCommission	0.121668	0.724073	1	0	4.197500e+01
254.582779	1.306203	city	5	1	1.343023	1.343023	0	1	0	0	CorrectCommission	0.174610	0.705745	1	0	4.190000e+01
255.888947	1.306106	city	6	1	1.369397	1.369397	0	1	0	0	CorrectCommission	0.274665	0.685546	1	0	4.182500e+01
257.188446	1.292885	city	5	1	1.181310	1.181310	0	1	0	0	CorrectCommission	0.438878	0.664387	1	0	4.175000e+01
258.501373	1.332966	city	8	1	0.971342	0.971342	0	1	0	0	CorrectCommission	1.235428	0.642981	1	0	4.167500e+01
259.820984	1.306269	city	2	1	1.403445	1.403445	0	1	0	0	CorrectCommission	0.403832	0.621845	1	0	4.160000e+01
261.140625	1.332994	city	5	1	1.744459	1.744459	0	1	0	0	CorrectCommission	1.697530	0.601366	1	0	4.152500e+01
262.460205	1.306199	city	8	1	1.366932	1.366932	0	1	0	0	CorrectCommission	0.265312	0.581811	1	0	4.145000e+01
263.786438	1.346249	city	1	1	1.249307	1.249307	0	1	0	0	CorrectCommission	0.180917	0.563480	1	0	4.137500e+01
265.112671	1.306231	city	9	0	0.000000	1.392674	0	0	0	1	OmissionError	0.362971	0.546675	1	0	4.130000e+01
266.418823	1.306079	city	1	1	1.473266	1.473266	0	1	0	0	CorrectCommission	0.668710	0.531722	1	0	4.122500e+01
267.731720	1.319729	city	8	1	1.167316	1.167316	0	1	0	0	CorrectCommission	0.491967	0.518974	1	0	4.115000e+01
269.031372	1.279560	city	4	1	1.259012	1.259012	0	1	0	0	CorrectCommission	0.144101	0.508773	1	0	4.107500e+01
269.671143	10.036536	break	0	0	0.000000	1.151020	0	0	0	0	ThoughtProbe	0.553789	0.501391	1	41	41
280.367462	1.319570	mountain	4	1	1.134540	1.134540	0	0	1	0	CommissionError	0.616309	0.496988	1	0	4.108824e+01
281.667053	1.279593	city	3	1	1.500772	1.500772	0	1	0	0	CorrectCommission	0.773060	0.495659	1	0	4.117647e+01
282.960052	1.306393	city	9	1	1.324889	1.324889	0	1	0	0	CorrectCommission	0.105816	0.497432	1	0	4.126471e+01
284.266357	1.306241	city	3	1	1.194625	1.194625	0	1	0	0	CorrectCommission	0.388363	0.502318	1	0	4.135294e+01
285.559204	1.279466	city	9	1	1.305617	1.305617	0	1	0	0	CorrectCommission	0.032704	0.510359	1	0	4.144118e+01
286.872101	1.346308	city	7	1	1.627135	1.627135	0	1	0	0	CorrectCommission	1.252440	0.521769	1	0	4.152941e+01
288.225067	1.359606	city	8	1	1.297610	1.297610	0	1	0	0	CorrectCommission	0.002329	0.536921	1	0	4.161765e+01
289.544556	1.279398	city	3	1	1.039763	1.039763	0	1	0	0	CorrectCommission	0.975863	0.556465	1	0	4.170588e+01
290.830688	1.292877	city	6	1	1.144141	1.144141	0	1	0	0	CorrectCommission	0.579887	0.581255	1	0	4.179412e+01
292.116943	1.279583	city	9	1	1.368686	1.368686	0	1	0	0	CorrectCommission	0.271967	0.612324	1	0	4.188235e+01
293.416595	1.319744	city	7	1	1.100885	1.100885	0	1	0	0	CorrectCommission	0.743986	0.650711	1	0	4.197059e+01
294.722931	1.292925	city	6	1	1.484325	1.484325	0	1	0	0	CorrectCommission	0.710664	0.697245	1	0	4.205882e+01
296.015778	1.292796	mountain	7	0	0.000000	1.433736	1	0	0	0	CorrectOmission	0.518748	0.752301	0	0	4.214706e+01
297.301971	1.279563	city	9	1	1.236441	1.236441	0	1	0	0	CorrectCommission	0.229730	0.815563	0	0	4.223529e+01
298.608246	1.332989	city	10	1	1.179757	1.179757	0	1	0	0	CorrectCommission	0.444768	0.885786	0	0	4.232353e+01
299.921112	1.292772	city	3	1	1.424528	1.424528	0	1	0	0	CorrectCommission	0.483815	0.960740	0	0	4.241176e+01
301.234009	1.332995	city	5	1	1.059108	1.059108	0	1	0	0	CorrectCommission	0.902474	1.037228	0	0	4.250000e+01
302.540253	1.279465	city	3	1	0.825795	0.825795	0	1	0	0	CorrectCommission	1.787590	1.111264	0	0	4.258824e+01
303.833099	1.306283	city	6	1	0.792369	0.792369	0	1	0	0	CorrectCommission	1.914397	1.178365	0	0	4.267647e+01
305.152740	1.332998	city	9	1	1.113207	1.113207	0	1	0	0	CorrectCommission	0.697239	1.234021	0	0	4.276471e+01
306.485687	1.332896	city	4	1	0.893787	0.893787	0	1	0	0	CorrectCommission	1.529647	1.274208	0	0	4.285294e+01
307.791870	1.279417	city	8	1	1.741301	1.741301	0	1	0	0	CorrectCommission	1.685552	1.295823	0	0	4.294118e+01
309.084778	1.306414	city	3	1	1.796023	1.796023	0	1	0	0	CorrectCommission	1.893146	1.297171	0	0	4.302941e+01
310.391022	1.306108	city	10	1	1.872807	1.872807	0	1	0	0	CorrectCommission	2.184444	1.278319	0	0	4.311765e+01
311.683868	1.279547	city	9	1	1.885497	1.885497	0	1	0	0	CorrectCommission	2.232582	1.241230	0	0	4.320588e+01
312.983459	1.319622	city	6	1	1.843405	1.843405	0	1	0	0	CorrectCommission	2.072902	1.189703	0	0	4.329412e+01
314.296417	1.306327	city	10	1	1.556801	1.556801	0	1	0	0	CorrectCommission	0.985617	1.129031	0	0	4.338235e+01
315.602722	1.306258	city	7	1	1.470559	1.470559	0	1	0	0	CorrectCommission	0.658439	1.065451	0	0	4.347059e+01
316.908905	1.306138	city	1	1	1.315987	1.315987	0	1	0	0	CorrectCommission	0.072043	1.005435	0	0	4.355882e+01
318.201813	1.279656	city	8	1	1.306614	1.306614	0	1	0	0	CorrectCommission	0.036486	0.954926	0	0	4.364706e+01
319.508087	1.332908	city	3	1	1.114172	1.114172	0	1	0	0	CorrectCommission	0.693576	0.918588	0	0	4.373529e+01
320.821014	1.292920	city	8	1	1.579809	1.579809	0	1	0	0	CorrectCommission	1.072901	0.899257	0	0	4.382353e+01
322.120575	1.306236	city	2	1	1.389030	1.389030	0	1	0	0	CorrectCommission	0.349147	0.897584	0	0	4.391176e+01
326.359100	7.170813	break	0	0	0.000000	1.304807	0	0	0	0	ThoughtProbe	0.029632	0.911982	0	44	44
330.590973	1.292945	city	4	0	0.000000	1.252404	0	0	0	1	OmissionError	0.169169	0.938832	0	0	4.362500e+01
331.883881	1.292873	city	10	1	1.157085	1.157085	0	1	0	0	CorrectCommission	0.530780	0.972967	0	0	4.325000e+01
333.190094	1.319551	city	6	1	0.944113	0.944113	0	1	0	0	CorrectCommission	1.338726	1.008372	0	0	4.287500e+01
334.509674	1.319611	city	2	1	0.940979	0.940979	0	1	0	0	CorrectCommission	1.350617	1.039033	0	0	4.250000e+01
335.829346	1.319698	city	10	1	0.828597	0.828597	0	1	0	0	CorrectCommission	1.776960	1.059765	0	0	4.212500e+01
337.148987	1.319566	city	7	1	0.575043	0.575043	0	1	0	0	CorrectCommission	2.738863	1.066876	0	0	4.175000e+01
338.468506	1.319475	mountain	9	1	0.551538	0.551538	0	0	1	0	CommissionError	2.828032	1.058626	0	0	4.137500e+01
339.768066	1.279642	city	9	1	1.513828	1.513828	0	1	0	0	CorrectCommission	0.822589	1.035416	0	0	41
341.067657	1.319590	mountain	8	0	0.000000	1.526143	1	0	0	0	CorrectOmission	0.869309	0.999592	0	0	4.062500e+01
342.373810	1.292722	city	3	1	1.297725	1.297725	0	1	0	0	CorrectCommission	0.002762	0.954943	0	0	4.025000e+01
343.659973	1.279582	city	2	1	1.537813	1.537813	0	1	0	0	CorrectCommission	0.913583	0.906127	0	0	3.987500e+01
344.952881	1.306235	city	8	1	1.340057	1.340057	0	1	0	0	CorrectCommission	0.163357	0.857982	0	0	3.950000e+01
346.272522	1.333057	city	6	1	1.120996	1.120996	0	1	0	0	CorrectCommission	0.667691	0.815001	0	0	3.912500e+01
347.598846	1.319564	city	8	1	1.226203	1.226203	0	1	0	0	CorrectCommission	0.268569	0.780811	0	0	3.875000e+01
348.918427	1.319622	city	10	1	1.005485	1.005485	0	1	0	0	CorrectCommission	1.105903	0.757958	0	0	3.837500e+01
350.224670	1.292881	city	7	1	1.405004	1.405004	0	1	0	0	CorrectCommission	0.409747	0.747737	0	0	38
351.537567	1.332868	city	10	1	1.076762	1.076762	0	1	0	0	CorrectCommission	0.835501	0.750280	0	0	3.762500e+01
352.863739	1.319463	city	4	1	1.081477	1.081477	0	1	0	0	CorrectCommission	0.817611	0.764591	0	0	3.725000e+01
354.176544	1.306177	city	3	1	1.407126	1.407126	0	1	0	0	CorrectCommission	0.417798	0.788731	0	0	3.687500e+01
355.496094	1.332919	city	5	1	1.413463	1.413463	0	1	0	0	CorrectCommission	0.441836	0.820028	0	0	3.650000e+01
356.822327	1.319562	city	10	1	1.350434	1.350434	0	1	0	0	CorrectCommission	0.202726	0.855333	0	0	3.612500e+01
358.148560	1.332902	city	5	1	1.361225	1.361225	0	1	0	0	CorrectCommission	0.243663	0.891379	0	0	3.575000e+01
359.468201	1.306398	city	9	1	1.713496	1.713496	0	1	0	0	CorrectCommission	1.580066	0.925098	0	0	3.537500e+01
360.774445	1.306079	city	8	0	0.000000	1.809333	0	0	0	1	OmissionError	1.943643	0.953960	0	0	35
362.073944	1.292928	city	6	1	1.762284	1.762284	0	1	0	0	CorrectCommission	1.765152	0.976296	0	0	3.462500e+01
363.400208	1.359562	city	4	0	0.000000	1.685893	0	0	0	1	OmissionError	1.475351	0.991468	0	0	3.425000e+01
364.726501	1.293016	mountain	4	0	0.000000	1.604154	1	0	0	0	CorrectOmission	1.165259	0.999855	0	0	3.387500e+01
366.012787	1.279597	city	8	1	1.541059	1.541059	0	1	0	0	CorrectCommission	0.925895	1.002675	0	0	3.350000e+01
367.325714	1.346221	city	10	1	1.520600	1.520600	0	1	0	0	CorrectCommission	0.848279	1.001669	0	0	3.312500e+01
368.651855	1.306080	city	7	1	1.335869	1.335869	0	1	0	0	CorrectCommission	0.147469	0.998714	0	0	3.275000e+01
369.978088	1.346364	city	6	0	0.000000	1.492076	0	0	0	1	OmissionError	0.740068	0.995384	0	0	3.237500e+01
371.290985	1.279479	city	7	1	1.659833	1.659833	0	1	0	0	CorrectCommission	1.376486	0.992631	0	0	32
372.577240	1.293003	city	3	1	1.509753	1.509753	0	1	0	0	CorrectCommission	0.807131	0.990585	0	0	3.162500e+01
373.870148	1.292803	city	1	1	1.430140	1.430140	0	1	0	0	CorrectCommission	0.505103	0.988592	0	0	3.125000e+01
375.223083	1.413051	city	5	1	1.205358	1.205358	0	1	0	0	CorrectCommission	0.347647	0.985349	0	0	3.087500e+01
376.589264	1.319327	city	8	1	0.901304	0.901304	0	1	0	0	CorrectCommission	1.501132	0.979226	0	0	3.050000e+01
377.902069	1.306264	city	7	1	0.782106	0.782106	0	1	0	0	CorrectCommission	1.953330	0.968562	0	0	3.012500e+01
379.221710	1.333031	city	4	1	0.822149	0.822149	0	1	0	0	CorrectCommission	1.801421	0.952087	0	0	2.975000e+01
380.534668	1.292912	city	9	1	0.969994	0.969994	0	1	0	0	CorrectCommission	1.240542	0.929156	0	0	2.937500e+01
384.326691	6.291123	break	0	1	1.233960	1.233960	0	0	0	0	ThoughtProbe	0.239142	0.899865	0	29	29
388.112030	1.279576	city	10	1	1.528733	1.528733	0	1	0	0	CorrectCommission	0.879136	0.865055	0	0	2.954348e+01
389.411682	1.319734	city	4	1	1.540901	1.540901	0	1	0	0	CorrectCommission	0.925297	0.826115	0	0	3.008696e+01
390.757996	1.372880	city	6	1	1.095735	1.095735	0	1	0	0	CorrectCommission	0.763522	0.784807	0	0	3.063043e+01
392.084137	1.279387	city	4	1	1.462381	1.462381	0	1	0	0	CorrectCommission	0.627416	0.742985	0	0	3.117391e+01
393.370331	1.293003	city	7	1	1.461197	1.461197	0	1	0	0	CorrectCommission	0.622926	0.702359	1	0	3.171739e+01
394.716675	1.399672	city	5	1	1.218502	1.218502	0	1	0	0	CorrectCommission	0.297783	0.664302	1	0	3.226087e+01
396.062866	1.292735	city	2	1	1.187063	1.187063	0	1	0	0	CorrectCommission	0.417054	0.629800	1	0	3.280435e+01
397.355774	1.293042	city	10	1	1.048454	1.048454	0	1	0	0	CorrectCommission	0.942891	0.599414	1	0	3.334783e+01
398.642059	1.279578	mountain	4	0	0.000000	1.127567	1	0	0	0	CorrectOmission	0.642763	0.573355	1	0	3.389130e+01
399.928284	1.292820	city	3	1	1.307168	1.307168	0	1	0	0	CorrectCommission	0.038586	0.551609	1	0	3.443478e+01
401.254486	1.359640	mountain	5	1	1.470024	1.470024	0	0	1	0	CommissionError	0.656413	0.534040	1	0	3.497826e+01
402.600708	1.332765	city	9	1	1.526511	1.526511	0	1	0	0	CorrectCommission	0.870703	0.520535	1	0	3.552174e+01
403.913513	1.292868	city	2	1	1.302109	1.302109	0	1	0	0	CorrectCommission	0.019396	0.511125	1	0	3.606522e+01
405.213135	1.306379	city	4	1	1.427905	1.427905	0	1	0	0	CorrectCommission	0.496627	0.506022	1	0	3.660870e+01
406.579437	1.426203	city	3	1	1.080128	1.080128	0	1	0	0	CorrectCommission	0.822731	0.505637	1	0	3.715217e+01
407.938995	1.292911	city	1	1	1.356793	1.356793	0	1	0	0	CorrectCommission	0.226849	0.510586	1	0	3.769565e+01
409.231812	1.292746	city	9	1	1.160728	1.160728	0	1	0	0	CorrectCommission	0.516960	0.521574	1	0	3.823913e+01
410.544556	1.332726	city	5	1	1.094821	1.094821	0	1	0	0	CorrectCommission	0.766988	0.539256	1	0	3.878261e+01
411.864227	1.306592	city	10	1	1.320675	1.320675	0	1	0	0	CorrectCommission	0.089830	0.564100	1	0	3.932609e+01
413.190613	1.346195	mountain	9	0	0.000000	1.340786	1	0	0	0	CorrectOmission	0.166124	0.596281	1	0	3.986957e+01
414.530090	1.332758	city	5	1	1.234385	1.234385	0	1	0	0	CorrectCommission	0.237528	0.635487	1	0	4.041304e+01
415.849640	1.306373	city	1	1	1.080704	1.080704	0	1	0	0	CorrectCommission	0.820544	0.680943	1	0	4.095652e+01
417.149261	1.292823	city	4	1	1.147477	1.147477	0	1	0	0	CorrectCommission	0.567228	0.731342	1	0	4.150000e+01
418.482086	1.372829	city	2	1	0.925615	0.925615	0	1	0	0	CorrectCommission	1.408902	0.784966	0	0	4.204348e+01
419.808380	1.279810	city	8	1	1.231312	1.231312	0	1	0	0	CorrectCommission	0.249184	0.839780	0	0	4.258696e+01
421.141388	1.386166	city	3	1	1.057825	1.057825	0	1	0	0	CorrectCommission	0.907342	0.893675	0	0	4.313043e+01
422.494232	1.319523	city	6	1	1.104295	1.104295	0	1	0	0	CorrectCommission	0.731047	0.944620	0	0	4.367391e+01
423.827118	1.346237	city	5	1	0.880503	0.880503	0	1	0	0	CorrectCommission	1.580043	0.990934	0	0	4.421739e+01
425.153351	1.306227	city	6	1	1.692056	1.692056	0	1	0	0	CorrectCommission	1.498730	1.031411	0	0	4.476087e+01
426.479492	1.346050	city	8	1	1.099182	1.099182	0	1	0	0	CorrectCommission	0.750444	1.065465	0	0	4.530435e+01
427.798981	1.292980	city	5	1	0.888023	0.888023	0	1	0	0	CorrectCommission	1.551514	1.093172	0	0	4.584783e+01
429.085236	1.279534	city	3	1	0.645105	0.645105	0	1	0	0	CorrectCommission	2.473067	1.115174	0	0	4.639130e+01
430.371460	1.292884	city	7	1	1.407805	1.407805	0	1	0	0	CorrectCommission	0.420373	1.132507	0	0	4.693478e+01
431.684448	1.333079	city	10	1	1.231815	1.231815	0	1	0	0	CorrectCommission	0.247276	1.146452	0	0	4.747826e+01
432.997437	1.292890	city	9	1	0.888573	0.888573	0	1	0	0	CorrectCommission	1.549427	1.158184	0	0	4.802174e+01
434.296997	1.306253	city	5	1	1.426012	1.426012	0	1	0	0	CorrectCommission	0.489444	1.168537	0	0	4.856522e+01
435.616577	1.332878	mountain	2	0	0.000000	1.599982	1	0	0	0	CorrectOmission	1.149433	1.177893	0	0	4.910870e+01
436.936035	1.306068	city	1	1	1.661043	1.661043	0	1	0	0	CorrectCommission	1.381076	1.186071	0	0	4.965217e+01
438.262177	1.346220	city	9	1	1.859751	1.859751	0	1	0	0	CorrectCommission	2.134912	1.192349	0	0	5.019565e+01
439.601837	1.333083	city	1	0	0.000000	1.257951	0	0	0	1	OmissionError	0.148128	1.195574	0	0	5.073913e+01
440.914734	1.292750	city	4	1	0.871764	0.871764	0	1	0	0	CorrectCommission	1.613196	1.194406	0	0	5.128261e+01
442.207642	1.293057	city	6	1	1.717314	1.717314	0	1	0	0	CorrectCommission	1.594550	1.187378	0	0	5.182609e+01
443.513977	1.319576	city	9	1	0.908271	0.908271	0	1	0	0	CorrectCommission	1.474700	1.173212	0	0	5.236957e+01
444.820190	1.292887	city	8	1	1.574319	1.574319	0	1	0	0	CorrectCommission	1.052072	1.150949	0	0	5.291304e+01
446.126434	1.319592	city	5	1	1.420296	1.420296	0	1	0	0	CorrectCommission	0.467759	1.120163	0	0	5.345652e+01
446.786224	8.117149	break	0	1	0.925560	0.925560	0	0	0	0	ThoughtProbe	1.409114	1.081005	0	54	54
455.543243	1.279743	city	10	1	1.880196	1.880196	0	1	0	0	CorrectCommission	2.212474	1.034294	0	0	5.406522e+01
456.856171	1.346088	city	8	1	1.745029	1.745029	0	1	0	0	CorrectCommission	1.699692	0.981480	0	0	5.413043e+01
458.189056	1.319694	city	5	1	1.510068	1.510068	0	1	0	0	CorrectCommission	0.808326	0.924554	0	0	5.419565e+01
459.488617	1.279416	city	6	1	1.342866	1.342866	0	1	0	0	CorrectCommission	0.174014	0.865863	0	0	5.426087e+01
460.774872	1.293093	city	1	1	1.404230	1.404230	0	1	0	0	CorrectCommission	0.406811	0.807888	0	0	5.432609e+01
462.094452	1.346063	city	4	1	1.246123	1.246123	0	1	0	0	CorrectCommission	0.192996	0.753042	0	0	5.439130e+01
463.433929	1.332912	city	7	1	1.063816	1.063816	0	1	0	0	CorrectCommission	0.884612	0.703474	1	0	5.445652e+01
464.746918	1.293029	city	6	1	1.111285	1.111285	0	1	0	0	CorrectCommission	0.704532	0.660918	1	0	5.452174e+01
466.073212	1.359551	city	2	1	1.097129	1.097129	0	1	0	0	CorrectCommission	0.758234	0.626715	1	0	5.458696e+01
467.392761	1.279577	mountain	9	0	0.000000	1.332497	1	0	0	0	CorrectOmission	0.134678	0.601794	1	0	5.465217e+01
468.672302	1.279504	city	6	1	1.511335	1.511335	0	1	0	0	CorrectCommission	0.813131	0.586755	1	0	5.471739e+01
469.958496	1.292856	city	1	1	1.327587	1.327587	0	1	0	0	CorrectCommission	0.116049	0.581925	1	0	5.478261e+01
471.278076	1.346327	mountain	4	0	0.000000	1.364401	1	0	0	0	CorrectOmission	0.255711	0.587482	1	0	5.484783e+01
472.597717	1.292936	mountain	3	0	0.000000	1.453509	1	0	0	0	CorrectOmission	0.593758	0.603489	1	0	5.491304e+01
473.897308	1.306255	city	6	1	1.426642	1.426642	0	1	0	0	CorrectCommission	0.491833	0.629902	1	0	5.497826e+01
475.230103	1.359371	city	4	1	1.115531	1.115531	0	1	0	0	CorrectCommission	0.688422	0.666627	1	0	5.504348e+01
476.562927	1.306238	city	9	1	1.191702	1.191702	0	1	0	0	CorrectCommission	0.399454	0.713369	1	0	5.510870e+01
477.889191	1.346305	city	10	1	0.938071	0.938071	0	1	0	0	CorrectCommission	1.361650	0.769604	0	0	5.517391e+01
479.222076	1.319482	city	1	1	1.282250	1.282250	0	1	0	0	CorrectCommission	0.055942	0.834389	0	0	5.523913e+01
480.541687	1.319729	city	9	1	1.054263	1.054263	0	1	0	0	CorrectCommission	0.920854	0.906290	0	0	5.530435e+01
481.861328	1.319570	city	2	1	1.020688	1.020688	0	1	0	0	CorrectCommission	1.048226	0.983215	0	0	5.536957e+01
483.207520	1.372768	city	9	1	1.241161	1.241161	0	1	0	0	CorrectCommission	0.211821	1.062398	0	0	5.543478e+01
484.580383	1.372991	city	6	1	1.150848	1.150848	0	1	0	0	CorrectCommission	0.554440	1.140504	0	0	5.550000e+01
485.926666	1.319590	city	8	1	0.982681	0.982681	0	1	0	0	CorrectCommission	1.192411	1.213792	0	0	5.556522e+01
487.259583	1.346202	city	1	1	0.642557	0.642557	0	1	0	0	CorrectCommission	2.482736	1.278414	0	0	5.563043e+01
488.585724	1.306090	city	6	1	1.912635	1.912635	0	1	0	0	CorrectCommission	2.335537	1.330745	0	0	5.569565e+01
489.931946	1.386352	city	3	1	1.841842	1.841842	0	1	0	0	CorrectCommission	2.066969	1.367799	0	0	5.576087e+01
491.298157	1.346089	city	8	1	1.619148	1.619148	0	1	0	0	CorrectCommission	1.222141	1.387536	0	0	5.582609e+01
492.637726	1.333061	mountain	1	0	0.000000	1.068688	1	0	0	0	CorrectOmission	0.866130	1.389057	0	0	5.589130e+01
493.964050	1.319560	city	5	1	0.669370	0.669370	0	1	0	0	CorrectCommission	2.381015	1.372757	0	0	5.595652e+01
495.283600	1.319544	city	6	1	0.900104	0.900104	0	1	0	0	CorrectCommission	1.505685	1.340327	0	0	5.602174e+01
496.623077	1.359422	city	2	1	0.922358	0.922358	0	1	0	0	CorrectCommission	1.421258	1.294785	0	0	5.608696e+01
497.969299	1.333011	city	6	1	0.795105	0.795105	0	1	0	0	CorrectCommission	1.904015	1.240207	0	0	5.615217e+01
499.275513	1.279443	city	3	1	1.655883	1.655883	0	1	0	0	CorrectCommission	1.361501	1.181541	0	0	5.621739e+01
500.601746	1.373026	city	4	1	1.590704	1.590704	0	1	0	0	CorrectCommission	1.114233	1.124278	0	0	5.628261e+01
501.948059	1.319575	city	1	1	1.329389	1.329389	0	1	0	0	CorrectCommission	0.122886	1.074067	0	0	5.634783e+01
503.267548	1.319429	city	5	1	1.486479	1.486479	0	1	0	0	CorrectCommission	0.718835	1.036339	0	0	5.641304e+01
504.587128	1.319701	city	3	1	1.522897	1.522897	0	1	0	0	CorrectCommission	0.856996	1.015832	0	0	5.647826e+01
505.953430	1.412910	city	6	1	1.360876	1.360876	0	1	0	0	CorrectCommission	0.242337	1.016283	0	0	5.654348e+01
507.326324	1.332846	city	10	1	1.104880	1.104880	0	1	0	0	CorrectCommission	0.728828	1.040101	0	0	5.660870e+01
508.652435	1.319417	city	3	1	1.241350	1.241350	0	1	0	0	CorrectCommission	0.211104	1.088181	0	0	5.667391e+01
509.952026	1.279781	city	4	1	1.523667	1.523667	0	1	0	0	CorrectCommission	0.859915	1.159801	0	0	5.673913e+01
511.251709	1.319557	city	5	1	1.650936	1.650936	0	1	0	0	CorrectCommission	1.342736	1.252589	0	0	5.680435e+01
512.597900	1.372847	city	2	1	1.567251	1.567251	0	1	0	0	CorrectCommission	1.025261	1.362742	0	0	5.686957e+01
513.977417	1.386206	city	6	1	1.309435	1.309435	0	1	0	0	CorrectCommission	0.047187	1.485228	0	0	5.693478e+01
518.036194	6.731275	break	0	0	0.871515	0.871515	0	0	0	0	ThoughtProbe	1.614141	1.614141	0	57	57
