onset	duration	trial_type	image_type	Press	ReactionTime	ReactionTime_Interpolated	CorrectOmission	CorrectCommission	CommissionError	OmissionError	response_type	nonsmoothVarianceTimeCourse	VarianceTimeCourse	In_the_Zone	ThoughtProbe	ThoughtProbe_Interpolated
0.653211	1.279585	city	3	1	1.927309	1.927309	0	1	0	0	CorrectCommission	1.475385	1.475385	0	0	52
1.932809	1.279611	city	2	1	1.764125	1.764125	0	1	0	0	CorrectCommission	1.045727	1.365290	0	0	52
3.212388	1.279547	city	8	1	1.470714	1.470714	0	1	0	0	CorrectCommission	0.273185	1.259665	0	0	52
4.498539	1.292756	mountain	7	1	1.205966	1.205966	0	0	1	0	CommissionError	0.423886	1.162439	0	0	52
5.791435	1.293037	city	2	1	0.997991	0.997991	0	1	0	0	CorrectCommission	0.971477	1.076542	0	0	52
7.077743	1.279578	city	10	1	1.708320	1.708320	0	1	0	0	CorrectCommission	0.898794	1.003589	0	0	52
8.357333	1.279603	city	6	1	1.553514	1.553514	0	1	0	0	CorrectCommission	0.491194	0.943821	0	0	52
9.643504	1.292740	city	3	1	1.415411	1.415411	0	1	0	0	CorrectCommission	0.127575	0.896210	0	0	52
10.929737	1.279726	mountain	6	1	0.857854	0.857854	0	0	1	0	CommissionError	1.340453	0.858718	0	0	52
12.209390	1.279579	city	2	1	1.179796	1.179796	0	1	0	0	CorrectCommission	0.492791	0.828688	0	0	52
13.488934	1.279508	mountain	3	1	0.927035	0.927035	0	0	1	0	CommissionError	1.158303	0.803329	1	0	52
14.768514	1.279654	city	2	1	0.726897	0.726897	0	1	0	0	CorrectCommission	1.685259	0.780091	1	0	52
16.048138	1.279594	city	10	1	1.634096	1.634096	0	1	0	0	CorrectCommission	0.703365	0.757013	1	0	52
17.334379	1.292889	city	3	1	1.244902	1.244902	0	1	0	0	CorrectCommission	0.321369	0.732956	1	0	52
18.620546	1.279445	city	9	1	1.074792	1.074792	0	1	0	0	CorrectCommission	0.769263	0.707700	1	0	52
19.900042	1.279548	city	3	1	1.714190	1.714190	0	1	0	0	CorrectCommission	0.914248	0.681806	1	0	52
21.179628	1.279625	city	7	1	1.128124	1.128124	0	1	0	0	CorrectCommission	0.628841	0.656547	1	0	52
22.459291	1.279700	city	2	1	1.632646	1.632646	0	1	0	0	CorrectCommission	0.699547	0.633643	1	0	52
23.745592	1.292902	city	5	1	1.617687	1.617687	0	1	0	0	CorrectCommission	0.660161	0.614983	1	0	52
25.038502	1.292915	city	10	1	1.403896	1.403896	0	1	0	0	CorrectCommission	0.097255	0.602352	1	0	52
26.338083	1.306250	city	4	1	1.202211	1.202211	0	1	0	0	CorrectCommission	0.433773	0.597152	1	0	52
27.637655	1.292891	city	8	1	1.462183	1.462183	0	1	0	0	CorrectCommission	0.250724	0.600213	1	0	52
28.923897	1.279594	city	10	1	1.287769	1.287769	0	1	0	0	CorrectCommission	0.208502	0.611653	1	0	52
30.203474	1.279559	city	9	1	1.715064	1.715064	0	1	0	0	CorrectCommission	0.916549	0.630827	1	0	52
31.483063	1.279618	city	7	1	1.400177	1.400177	0	1	0	0	CorrectCommission	0.087465	0.656368	1	0	52
32.762566	1.279387	city	10	1	1.140642	1.140642	0	1	0	0	CorrectCommission	0.595883	0.686351	1	0	52
34.048790	1.293065	city	2	1	1.704774	1.704774	0	1	0	0	CorrectCommission	0.889458	0.718428	1	0	52
35.335114	1.279579	city	7	1	1.663576	1.663576	0	1	0	0	CorrectCommission	0.780983	0.750123	1	0	52
36.621284	1.292765	city	6	1	2.002102	2.002102	0	1	0	0	CorrectCommission	1.672312	0.779082	1	0	52
37.914192	1.293051	city	10	0	0.000000	1.659174	0	0	0	1	OmissionError	0.769395	0.803282	1	0	52
39.200516	1.279591	city	7	1	1.177055	1.177055	0	1	0	0	CorrectCommission	0.500008	0.821262	0	0	52
40.480049	1.279475	city	2	0	0.000000	1.098009	0	0	0	1	OmissionError	0.708134	0.832269	0	0	52
41.779640	1.319712	city	7	1	1.019399	1.019399	0	1	0	0	CorrectCommission	0.915111	0.836319	0	0	52
43.085926	1.292859	city	2	1	0.538589	0.538589	0	1	0	0	CorrectCommission	2.181066	0.834216	0	0	52
44.378807	1.292900	mountain	8	0	0.000000	1.161987	1	0	0	0	CorrectOmission	0.539681	0.827458	0	0	52
45.671722	1.292933	city	2	1	1.821824	1.821824	0	1	0	0	CorrectCommission	1.197645	0.818127	0	0	52
46.977882	1.319386	city	9	1	1.450330	1.450330	0	1	0	0	CorrectCommission	0.219516	0.808543	1	0	52
48.284122	1.293094	city	3	1	1.529189	1.529189	0	1	0	0	CorrectCommission	0.427147	0.801043	1	0	52
49.570454	1.279572	city	9	1	1.780148	1.780148	0	1	0	0	CorrectCommission	1.087914	0.797601	1	0	52
50.863316	1.306149	city	8	1	1.321330	1.321330	0	1	0	0	CorrectCommission	0.120139	0.799582	1	0	52
52.202854	1.372926	city	4	1	1.677709	1.677709	0	1	0	0	CorrectCommission	0.818196	0.807533	1	0	52
53.562443	1.346253	city	1	1	1.175176	1.175176	0	1	0	0	CorrectCommission	0.504957	0.821075	0	0	52
54.888603	1.306068	city	9	1	1.156449	1.156449	0	1	0	0	CorrectCommission	0.554262	0.838970	0	0	52
56.214828	1.346385	city	2	1	1.688544	1.688544	0	1	0	0	CorrectCommission	0.846725	0.859300	0	0	52
57.547722	1.319405	city	8	1	1.060826	1.060826	0	1	0	0	CorrectCommission	0.806035	0.879773	0	0	52
58.207424	8.410588	break	0	1	1.035364	1.035364	0	0	0	0	ThoughtProbe	0.873077	0.898097	0	52	52
67.264542	1.293051	city	4	1	1.903901	1.903901	0	1	0	0	CorrectCommission	1.413752	0.912381	0	0	5.182500e+01
68.557442	1.292748	city	6	1	2.044585	2.044585	0	1	0	0	CorrectCommission	1.784167	0.921462	0	0	5.165000e+01
69.843681	1.279740	mountain	7	0	0.000000	1.914015	1	0	0	0	CorrectOmission	1.440381	0.925141	0	0	5.147500e+01
71.123276	1.279447	city	5	1	1.724237	1.724237	0	1	0	0	CorrectCommission	0.940703	0.924260	0	0	5.130000e+01
72.402878	1.279762	city	3	1	1.687296	1.687296	0	1	0	0	CorrectCommission	0.843439	0.920542	0	0	5.112500e+01
73.695847	1.306166	city	1	1	1.168819	1.168819	0	1	0	0	CorrectCommission	0.521693	0.916330	0	0	5.095000e+01
74.988747	1.279634	city	10	0	0.000000	1.013299	0	0	0	1	OmissionError	0.931173	0.914197	0	0	5.077500e+01
76.275009	1.292895	city	8	1	1.096712	1.096712	0	1	0	0	CorrectCommission	0.711548	0.916480	0	0	5.060000e+01
77.567833	1.292759	city	2	1	1.295037	1.295037	0	1	0	0	CorrectCommission	0.189366	0.924889	0	0	5.042500e+01
78.860649	1.292870	city	7	1	1.634152	1.634152	0	1	0	0	CorrectCommission	0.703511	0.940175	0	0	5.025000e+01
80.153625	1.293074	city	4	1	1.745680	1.745680	0	1	0	0	CorrectCommission	0.997162	0.961976	0	0	5.007500e+01
81.439880	1.279443	city	3	0	0.000000	1.196702	0	0	0	1	OmissionError	0.448278	0.988836	0	0	4.990000e+01
82.732735	1.306264	city	8	1	0.751231	0.751231	0	1	0	0	CorrectCommission	1.621188	1.018400	0	0	4.972500e+01
84.032372	1.293014	mountain	4	0	0.000000	1.173279	1	0	0	0	CorrectOmission	0.509949	1.047686	0	0	4.955000e+01
85.325333	1.292909	city	5	1	1.786114	1.786114	0	1	0	0	CorrectCommission	1.103623	1.073576	0	0	4.937500e+01
86.618210	1.292844	city	10	1	1.913002	1.913002	0	1	0	0	CorrectCommission	1.437714	1.093202	0	0	4.920000e+01
87.937798	1.346322	city	9	0	0.000000	2.044794	0	0	0	1	OmissionError	1.784717	1.104379	0	0	4.902500e+01
89.257324	1.292732	city	10	0	0.000000	2.102955	0	0	0	1	OmissionError	1.937854	1.105927	0	0	4.885000e+01
90.543556	1.279746	city	6	0	0.000000	2.008952	0	0	0	1	OmissionError	1.690347	1.097824	0	0	4.867500e+01
91.836548	1.306230	city	2	1	1.684250	1.684250	0	1	0	0	CorrectCommission	0.835418	1.081166	0	0	4.850000e+01
93.149368	1.319414	city	3	1	1.050315	1.050315	0	1	0	0	CorrectCommission	0.833710	1.058006	0	0	4.832500e+01
94.468895	1.319636	city	4	1	0.909677	0.909677	0	1	0	0	CorrectCommission	1.204005	1.030950	0	0	4.815000e+01
95.781860	1.306299	city	10	1	1.714181	1.714181	0	1	0	0	CorrectCommission	0.914226	1.002755	0	0	4.797500e+01
97.094795	1.319565	city	5	1	1.552152	1.552152	0	1	0	0	CorrectCommission	0.487608	0.975933	0	0	4.780000e+01
98.421074	1.333000	mountain	7	1	1.272371	1.272371	0	0	1	0	CommissionError	0.249044	0.952411	0	0	4.762500e+01
99.733978	1.292804	city	10	1	1.097492	1.097492	0	1	0	0	CorrectCommission	0.709496	0.933285	0	0	4.745000e+01
101.020172	1.279576	city	8	1	0.828338	0.828338	0	1	0	0	CorrectCommission	1.418168	0.918720	0	0	4.727500e+01
102.319664	1.319407	city	3	1	0.983294	0.983294	0	1	0	0	CorrectCommission	1.010175	0.908041	0	0	4.710000e+01
103.639229	1.319725	city	4	1	1.687982	1.687982	0	1	0	0	CorrectCommission	0.845245	0.899953	0	0	4.692500e+01
104.945557	1.292936	city	5	0	0.000000	1.388651	0	0	0	1	OmissionError	0.057117	0.892793	0	0	4.675000e+01
106.245056	1.306065	city	3	1	0.885865	0.885865	0	1	0	0	CorrectCommission	1.266702	0.884909	0	0	4.657500e+01
107.551285	1.306382	city	1	1	0.980188	0.980188	0	1	0	0	CorrectCommission	1.018351	0.874898	0	0	4.640000e+01
108.864189	1.319432	city	2	1	0.847555	0.847555	0	1	0	0	CorrectCommission	1.367569	0.861942	0	0	4.622500e+01
110.183723	1.319636	city	5	1	0.742109	0.742109	0	1	0	0	CorrectCommission	1.645206	0.845935	0	0	4.605000e+01
111.483376	1.279665	city	9	1	1.757089	1.757089	0	1	0	0	CorrectCommission	1.027200	0.827452	0	0	4.587500e+01
112.776329	1.306248	city	10	1	1.547786	1.547786	0	1	0	0	CorrectCommission	0.476112	0.807698	1	0	4.570000e+01
114.095848	1.332794	city	6	1	1.564914	1.564914	0	1	0	0	CorrectCommission	0.521210	0.788204	1	0	4.552500e+01
115.415413	1.306329	city	9	1	1.192809	1.192809	0	1	0	0	CorrectCommission	0.458528	0.770512	1	0	4.535000e+01
116.715034	1.292912	city	5	1	1.333947	1.333947	0	1	0	0	CorrectCommission	0.086917	0.755909	1	0	4.517500e+01
117.361488	11.529364	break	0	1	0.915739	0.915739	0	0	0	0	ThoughtProbe	1.188045	0.745156	1	45	45
129.537384	1.293056	city	7	1	1.143238	1.143238	0	1	0	0	CorrectCommission	0.589048	0.738343	1	0	4.491176e+01
130.837006	1.306189	city	10	1	1.418136	1.418136	0	1	0	0	CorrectCommission	0.134750	0.734958	1	0	4.482353e+01
132.129837	1.279471	city	3	1	1.456947	1.456947	0	1	0	0	CorrectCommission	0.236936	0.734017	1	0	4.473529e+01
133.429398	1.319641	city	6	1	1.920346	1.920346	0	1	0	0	CorrectCommission	1.457050	0.734265	1	0	4.464706e+01
134.729034	1.279659	city	3	0	0.000000	1.929731	0	0	0	1	OmissionError	1.481761	0.734448	1	0	4.455882e+01
136.015335	1.292931	mountain	8	1	1.616407	1.616407	0	0	1	0	CommissionError	0.656790	0.733648	1	0	4.447059e+01
137.314850	1.306089	city	3	0	0.000000	1.111678	0	0	0	1	OmissionError	0.672143	0.731427	1	0	4.438235e+01
138.614410	1.293034	city	1	1	0.921224	0.921224	0	1	0	0	CorrectCommission	1.173603	0.727883	1	0	4.429412e+01
139.900650	1.279437	city	6	1	1.550722	1.550722	0	1	0	0	CorrectCommission	0.483845	0.723609	1	0	4.420588e+01
141.193558	1.306389	city	4	0	0.000000	1.688345	0	0	0	1	OmissionError	0.846199	0.719580	1	0	4.411765e+01
142.486542	1.279571	city	3	0	0.000000	1.523439	0	0	0	1	OmissionError	0.412008	0.716889	1	0	4.402941e+01
143.772766	1.292900	city	9	1	1.245354	1.245354	0	1	0	0	CorrectCommission	0.320180	0.716554	1	0	4.394118e+01
145.085678	1.332898	city	6	1	1.043438	1.043438	0	1	0	0	CorrectCommission	0.851817	0.719277	1	0	4.385294e+01
146.391830	1.279415	mountain	2	0	0.000000	1.314648	1	0	0	0	CorrectOmission	0.137731	0.725337	1	0	4.376471e+01
147.684738	1.306405	city	9	1	1.657770	1.657770	0	1	0	0	CorrectCommission	0.765697	0.734588	1	0	4.367647e+01
148.984406	1.292929	city	8	1	1.671591	1.671591	0	1	0	0	CorrectCommission	0.802086	0.746464	1	0	4.358824e+01
150.270569	1.279392	city	7	0	0.000000	1.187198	0	0	0	1	OmissionError	0.473301	0.760157	1	0	4.350000e+01
151.563477	1.306422	city	4	1	0.765487	0.765487	0	1	0	0	CorrectCommission	1.583651	0.774773	1	0	4.341176e+01
152.869797	1.306211	city	2	1	0.967351	0.967351	0	1	0	0	CorrectCommission	1.052151	0.789451	1	0	4.332353e+01
154.195969	1.346135	city	6	1	1.052769	1.052769	0	1	0	0	CorrectCommission	0.827249	0.803522	1	0	4.323529e+01
155.528778	1.319493	city	8	1	1.387828	1.387828	0	1	0	0	CorrectCommission	0.054949	0.816597	0	0	4.314706e+01
156.841644	1.306236	city	9	1	1.911584	1.911584	0	1	0	0	CorrectCommission	1.433979	0.828536	0	0	4.305882e+01
158.147949	1.306389	city	5	1	1.756170	1.756170	0	1	0	0	CorrectCommission	1.024781	0.839401	0	0	4.297059e+01
159.440857	1.279429	city	2	1	1.338481	1.338481	0	1	0	0	CorrectCommission	0.074980	0.849474	0	0	4.288235e+01
160.740448	1.319734	city	8	1	1.770268	1.770268	0	1	0	0	CorrectCommission	1.061900	0.859191	0	0	4.279412e+01
162.046692	1.292753	city	7	1	1.159944	1.159944	0	1	0	0	CorrectCommission	0.545061	0.869007	0	0	4.270588e+01
163.346222	1.306319	city	1	1	1.012833	1.012833	0	1	0	0	CorrectCommission	0.932398	0.879433	0	0	4.261765e+01
164.645889	1.293022	city	9	1	0.754263	0.754263	0	1	0	0	CorrectCommission	1.613204	0.890940	0	0	4.252941e+01
165.932175	1.279537	city	7	1	1.849798	1.849798	0	1	0	0	CorrectCommission	1.271300	0.903886	0	0	4.244118e+01
167.225067	1.306237	city	8	1	1.771449	1.771449	0	1	0	0	CorrectCommission	1.065010	0.918424	0	0	4.235294e+01
168.551208	1.346067	city	3	1	1.488585	1.488585	0	1	0	0	CorrectCommission	0.320239	0.934386	0	0	4.226471e+01
169.870697	1.292896	city	9	0	0.000000	1.297228	0	0	0	1	OmissionError	0.183597	0.951184	0	0	4.217647e+01
171.163696	1.293099	city	5	0	0.000000	1.161169	0	0	0	1	OmissionError	0.541836	0.967783	0	0	4.208824e+01
174.802505	5.984520	break	0	1	1.044196	1.044196	0	0	0	0	ThoughtProbe	0.849820	0.982747	0	42	42
178.454620	1.319725	city	10	1	0.910101	0.910101	0	1	0	0	CorrectCommission	1.202889	0.994384	0	0	4.185000e+01
179.760941	1.292896	city	6	1	0.758641	0.758641	0	1	0	0	CorrectCommission	1.601678	1.001017	0	0	4.170000e+01
181.080460	1.346143	city	8	1	0.737532	0.737532	0	1	0	0	CorrectCommission	1.657258	1.001246	0	0	4.155000e+01
182.406616	1.306198	city	10	1	0.637521	0.637521	0	1	0	0	CorrectCommission	1.920582	0.994189	0	0	4.140000e+01
183.712814	1.306199	city	5	1	1.177928	1.177928	0	1	0	0	CorrectCommission	0.497709	0.979632	0	0	4.125000e+01
185.025787	1.319729	mountain	6	1	0.770815	0.770815	0	0	1	0	CommissionError	1.569624	0.958081	0	0	4.110000e+01
186.332016	1.292743	city	3	1	1.699113	1.699113	0	1	0	0	CorrectCommission	0.874550	0.930612	0	0	4.095000e+01
187.624847	1.292919	city	6	1	1.437252	1.437252	0	1	0	0	CorrectCommission	0.185082	0.898759	0	0	4.080000e+01
188.924438	1.306264	city	9	1	1.321761	1.321761	0	1	0	0	CorrectCommission	0.119004	0.864326	0	0	4.065000e+01
190.230759	1.306367	city	5	0	0.000000	0.931079	0	0	0	1	OmissionError	1.147655	0.829066	0	0	4.050000e+01
191.523727	1.279574	city	1	1	0.863121	0.863121	0	1	0	0	CorrectCommission	1.326586	0.794572	1	0	4.035000e+01
192.816650	1.306262	city	6	1	1.715800	1.715800	0	1	0	0	CorrectCommission	0.918487	0.762230	1	0	4.020000e+01
194.129471	1.319396	city	1	0	0.000000	1.596176	0	0	0	1	OmissionError	0.603521	0.733126	1	0	4.005000e+01
195.428970	1.279591	mountain	4	1	1.178601	1.178601	0	0	1	0	CommissionError	0.495939	0.708066	1	0	3.990000e+01
196.708618	1.279717	city	7	0	0.000000	1.137427	0	0	0	1	OmissionError	0.604349	0.687591	1	0	3.975000e+01
197.988281	1.279582	city	2	0	0.000000	1.245016	0	0	0	1	OmissionError	0.321069	0.672031	1	0	3.960000e+01
199.307846	1.359547	city	5	1	1.273732	1.273732	0	1	0	0	CorrectCommission	0.245461	0.661615	1	0	3.945000e+01
200.627396	1.279576	city	1	1	0.995937	0.995937	0	1	0	0	CorrectCommission	0.976885	0.656541	1	0	3.930000e+01
201.913651	1.292910	city	9	1	1.755095	1.755095	0	1	0	0	CorrectCommission	1.021951	0.657078	1	0	3.915000e+01
203.226471	1.332756	city	7	1	1.466356	1.466356	0	1	0	0	CorrectCommission	0.261710	0.663672	1	0	39
204.566071	1.346415	city	4	1	1.290396	1.290396	0	1	0	0	CorrectCommission	0.201585	0.677006	1	0	3.885000e+01
205.892334	1.306139	city	7	1	0.958106	0.958106	0	1	0	0	CorrectCommission	1.076492	0.697952	1	0	3.870000e+01
207.191895	1.292956	city	2	1	0.929247	0.929247	0	1	0	0	CorrectCommission	1.152478	0.727445	1	0	3.855000e+01
208.491425	1.306129	city	3	1	1.209097	1.209097	0	1	0	0	CorrectCommission	0.415644	0.766328	1	0	3.840000e+01
209.791016	1.293038	city	7	1	1.532009	1.532009	0	1	0	0	CorrectCommission	0.434573	0.815066	0	0	3.825000e+01
211.110550	1.346035	city	1	1	1.516626	1.516626	0	1	0	0	CorrectCommission	0.394070	0.873434	0	0	3.810000e+01
212.430038	1.292938	city	8	1	1.433800	1.433800	0	1	0	0	CorrectCommission	0.175991	0.940234	0	0	3.795000e+01
213.723022	1.293044	city	1	1	2.234165	2.234165	0	1	0	0	CorrectCommission	2.283325	1.013093	0	0	3.780000e+01
215.009277	1.279443	city	9	1	1.230815	1.230815	0	1	0	0	CorrectCommission	0.358459	1.088378	0	0	3.765000e+01
216.288849	1.279712	city	2	1	1.368256	1.368256	0	1	0	0	CorrectCommission	0.003417	1.161487	0	0	3.750000e+01
217.595169	1.332922	mountain	8	0	0.000000	1.672500	1	0	0	0	CorrectOmission	0.804479	1.227121	0	0	3.735000e+01
218.921326	1.319401	city	3	1	2.012776	2.012776	0	1	0	0	CorrectCommission	1.700416	1.279867	0	0	3.720000e+01
220.254227	1.346383	city	10	0	0.000000	2.258317	0	0	0	1	OmissionError	2.346916	1.314933	0	0	3.705000e+01
221.567139	1.279447	city	3	0	0.000000	2.398390	0	0	0	1	OmissionError	2.715722	1.328837	0	0	3.690000e+01
222.853333	1.292949	city	10	0	0.000000	2.422263	0	0	0	1	OmissionError	2.778580	1.319977	0	0	3.675000e+01
224.146317	1.293002	city	7	0	0.000000	2.319206	0	0	0	1	OmissionError	2.507234	1.288939	0	0	3.660000e+01
225.439255	1.292883	city	5	1	2.078486	2.078486	0	1	0	0	CorrectCommission	1.873427	1.238441	0	0	3.645000e+01
226.738739	1.306086	city	9	1	1.689372	1.689372	0	1	0	0	CorrectCommission	0.848903	1.172980	0	0	3.630000e+01
228.038315	1.293062	city	8	1	1.351533	1.351533	0	1	0	0	CorrectCommission	0.040613	1.098168	0	0	3.615000e+01
231.990326	6.610979	break	0	0	0.000000	1.447963	0	0	0	0	ThoughtProbe	0.213284	1.019951	0	36	36
235.942322	1.293016	city	4	1	1.597577	1.597577	0	1	0	0	CorrectCommission	0.607212	0.943837	0	0	3.589130e+01
237.261993	1.346311	mountain	7	1	1.419292	1.419292	0	0	1	0	CommissionError	0.137792	0.874316	0	0	3.578261e+01
238.608246	1.346208	city	2	1	1.155896	1.155896	0	1	0	0	CorrectCommission	0.555721	0.814482	0	0	3.567391e+01
239.941055	1.319402	mountain	2	1	1.196595	1.196595	0	0	1	0	CommissionError	0.448561	0.765966	1	0	3.556522e+01
241.380524	1.559526	city	8	1	0.651647	0.651647	0	1	0	0	CorrectCommission	1.883389	0.729089	1	0	3.545652e+01
242.800049	1.279538	city	9	1	1.192431	1.192431	0	1	0	0	CorrectCommission	0.459524	0.703174	1	0	3.534783e+01
244.079620	1.279604	city	1	1	1.071052	1.071052	0	1	0	0	CorrectCommission	0.779110	0.686966	1	0	3.523913e+01
245.359283	1.279719	city	5	1	1.442469	1.442469	0	1	0	0	CorrectCommission	0.198818	0.678915	1	0	3.513043e+01
246.638947	1.279603	city	2	1	1.295146	1.295146	0	1	0	0	CorrectCommission	0.189080	0.677560	1	0	3.502174e+01
247.918503	1.279520	city	10	1	1.230815	1.230815	0	1	0	0	CorrectCommission	0.358461	0.681625	1	0	3.491304e+01
249.198090	1.279633	city	5	1	1.742756	1.742756	0	1	0	0	CorrectCommission	0.989461	0.690173	1	0	3.480435e+01
250.477615	1.279425	city	2	1	0.750950	0.750950	0	1	0	0	CorrectCommission	1.621927	0.702567	1	0	3.469565e+01
251.757111	1.279563	city	3	1	1.603883	1.603883	0	1	0	0	CorrectCommission	0.623814	0.718352	1	0	3.458696e+01
253.036743	1.279702	city	5	1	1.228525	1.228525	0	1	0	0	CorrectCommission	0.364490	0.737123	1	0	3.447826e+01
254.316315	1.279461	city	6	1	1.070906	1.070906	0	1	0	0	CorrectCommission	0.779495	0.758306	1	0	3.436957e+01
255.595840	1.279564	city	9	1	1.454461	1.454461	0	1	0	0	CorrectCommission	0.230392	0.781006	1	0	3.426087e+01
256.875427	1.279597	city	7	1	1.085524	1.085524	0	1	0	0	CorrectCommission	0.741008	0.803938	1	0	3.415217e+01
258.161743	1.293062	city	10	1	1.351444	1.351444	0	1	0	0	CorrectCommission	0.040848	0.825428	0	0	3.404348e+01
259.447998	1.279431	city	8	0	0.000000	1.044389	0	0	0	1	OmissionError	0.849314	0.843611	0	0	3.393478e+01
260.727570	1.279734	mountain	8	0	0.000000	0.631470	1	0	0	0	CorrectOmission	1.936514	0.856619	0	0	3.382609e+01
262.013885	1.292912	city	7	1	0.579801	0.579801	0	1	0	0	CorrectCommission	2.072557	0.862879	0	0	3.371739e+01
263.300140	1.279553	city	10	1	1.356495	1.356495	0	1	0	0	CorrectCommission	0.027550	0.861432	0	0	3.360870e+01
264.579681	1.279580	city	2	1	0.916750	0.916750	0	1	0	0	CorrectCommission	1.185382	0.852173	0	0	3.350000e+01
265.859222	1.279488	city	9	1	1.036587	1.036587	0	1	0	0	CorrectCommission	0.869855	0.835863	0	0	3.339130e+01
267.138794	1.279668	city	1	1	0.644452	0.644452	0	1	0	0	CorrectCommission	1.902333	0.814163	0	0	3.328261e+01
268.418427	1.279558	mountain	3	1	1.125216	1.125216	0	0	1	0	CommissionError	0.636500	0.789394	1	0	3.317391e+01
269.704681	1.292933	city	10	1	1.348396	1.348396	0	1	0	0	CorrectCommission	0.048873	0.764272	1	0	3.306522e+01
270.997559	1.292822	city	2	1	1.618147	1.618147	0	1	0	0	CorrectCommission	0.661371	0.741525	1	0	3.295652e+01
272.283752	1.279569	city	5	0	0.000000	1.590344	0	0	0	1	OmissionError	0.588168	0.723472	1	0	3.284783e+01
273.570038	1.293021	city	7	1	1.406001	1.406001	0	1	0	0	CorrectCommission	0.102797	0.711776	1	0	3.273913e+01
274.856323	1.279584	city	6	1	1.206128	1.206128	0	1	0	0	CorrectCommission	0.423460	0.707209	1	0	3.263043e+01
276.135895	1.279551	city	7	1	1.137105	1.137105	0	1	0	0	CorrectCommission	0.605196	0.709596	1	0	3.252174e+01
277.415497	1.279608	city	9	1	1.104117	1.104117	0	1	0	0	CorrectCommission	0.692050	0.717895	1	0	3.241304e+01
278.695068	1.279574	city	5	1	1.093702	1.093702	0	1	0	0	CorrectCommission	0.719475	0.730436	1	0	3.230435e+01
279.981323	1.292904	city	7	1	0.977482	0.977482	0	1	0	0	CorrectCommission	1.025476	0.745200	1	0	3.219565e+01
281.267517	1.279485	city	10	1	1.494783	1.494783	0	1	0	0	CorrectCommission	0.336559	0.760197	1	0	3.208696e+01
282.553741	1.292987	city	4	1	1.190936	1.190936	0	1	0	0	CorrectCommission	0.463461	0.773781	1	0	3.197826e+01
283.839996	1.279509	city	10	1	0.695685	0.695685	0	1	0	0	CorrectCommission	1.767439	0.784895	1	0	3.186957e+01
285.119568	1.279647	city	1	1	0.535119	0.535119	0	1	0	0	CorrectCommission	2.190204	0.793156	1	0	3.176087e+01
286.399170	1.279574	city	8	1	1.658136	1.658136	0	1	0	0	CorrectCommission	0.766659	0.798891	1	0	3.165217e+01
287.678772	1.279587	city	7	1	1.444824	1.444824	0	1	0	0	CorrectCommission	0.205019	0.802966	1	0	3.154348e+01
288.958344	1.279575	city	9	1	1.400912	1.400912	0	1	0	0	CorrectCommission	0.089400	0.806475	1	0	3.143478e+01
290.237915	1.279579	city	7	0	0.000000	1.280474	0	0	0	1	OmissionError	0.227711	0.810453	1	0	3.132609e+01
291.517456	1.279503	city	9	0	0.000000	1.127527	0	0	0	1	OmissionError	0.630415	0.815683	0	0	3.121739e+01
292.797028	1.279655	city	3	0	0.000000	0.986089	0	0	0	1	OmissionError	1.002815	0.822442	0	0	3.110870e+01
293.436859	8.184009	break	0	0	0.000000	0.900179	0	0	0	0	ThoughtProbe	1.229014	0.830507	0	31	31
302.260590	1.279409	city	9	1	0.913813	0.913813	0	1	0	0	CorrectCommission	1.193115	0.839173	0	0	3.091176e+01
303.540070	1.279579	city	4	1	1.071010	1.071010	0	1	0	0	CorrectCommission	0.779221	0.847426	0	0	3.082353e+01
304.819733	1.279741	city	3	1	1.071013	1.071013	0	1	0	0	CorrectCommission	0.779214	0.854109	0	0	3.073529e+01
306.099396	1.279576	city	5	1	1.443954	1.443954	0	1	0	0	CorrectCommission	0.202727	0.858071	0	0	3.064706e+01
307.378967	1.279571	city	6	1	1.794196	1.794196	0	1	0	0	CorrectCommission	1.124901	0.858375	0	0	3.055882e+01
308.658447	1.279405	city	7	1	0.964226	0.964226	0	1	0	0	CorrectCommission	1.060381	0.854396	0	0	3.047059e+01
309.937958	1.279600	city	8	1	0.511036	0.511036	0	1	0	0	CorrectCommission	2.253614	0.845917	0	0	3.038235e+01
311.217621	1.279738	city	2	1	1.230940	1.230940	0	1	0	0	CorrectCommission	0.358131	0.833105	0	0	3.029412e+01
312.497284	1.279560	mountain	4	1	1.032003	1.032003	0	0	1	0	CommissionError	0.881925	0.816549	0	0	3.020588e+01
313.776764	1.279416	city	10	1	1.499844	1.499844	0	1	0	0	CorrectCommission	0.349883	0.797078	1	0	3.011765e+01
315.063019	1.293087	city	4	1	1.535687	1.535687	0	1	0	0	CorrectCommission	0.444257	0.775733	1	0	3.002941e+01
316.349243	1.279396	city	7	0	0.000000	1.623880	0	0	0	1	OmissionError	0.676465	0.753655	1	0	2.994118e+01
317.628845	1.279764	city	8	0	0.000000	1.715098	0	0	0	1	OmissionError	0.916639	0.732039	1	0	2.985294e+01
318.908539	1.279609	city	9	0	0.000000	1.760019	0	0	0	1	OmissionError	1.034916	0.712050	1	0	2.976471e+01
320.188080	1.279532	city	6	1	1.709321	1.709321	0	1	0	0	CorrectCommission	0.901428	0.694827	1	0	2.967647e+01
321.467560	1.279412	city	10	1	1.513679	1.513679	0	1	0	0	CorrectCommission	0.386310	0.681441	1	0	2.958824e+01
322.753815	1.293068	city	9	1	1.714349	1.714349	0	1	0	0	CorrectCommission	0.914668	0.672825	1	0	2.950000e+01
324.046814	1.292937	city	7	1	1.404104	1.404104	0	1	0	0	CorrectCommission	0.097803	0.669650	1	0	2.941176e+01
325.333038	1.279548	city	6	1	1.441928	1.441928	0	1	0	0	CorrectCommission	0.197394	0.672256	1	0	2.932353e+01
326.612640	1.279602	city	5	1	1.089392	1.089392	0	1	0	0	CorrectCommission	0.730822	0.680522	1	0	2.923529e+01
327.892120	1.279411	city	1	1	1.015036	1.015036	0	1	0	0	CorrectCommission	0.926600	0.693815	1	0	2.914706e+01
329.171631	1.279567	city	5	1	1.605189	1.605189	0	1	0	0	CorrectCommission	0.627254	0.710999	1	0	2.905882e+01
330.451294	1.279764	city	3	1	1.396316	1.396316	0	1	0	0	CorrectCommission	0.077297	0.730536	1	0	2.897059e+01
331.730865	1.279395	city	5	1	1.177556	1.177556	0	1	0	0	CorrectCommission	0.498691	0.750649	1	0	2.888235e+01
333.017029	1.292909	mountain	6	0	0.000000	0.983153	1	0	0	0	CorrectOmission	1.010546	0.769553	1	0	2.879412e+01
334.303345	1.279736	city	8	0	0.000000	0.849701	0	0	0	1	OmissionError	1.361920	0.785764	1	0	2.870588e+01
335.583008	1.279617	city	7	0	0.000000	0.813794	0	0	0	1	OmissionError	1.456462	0.798313	1	0	2.861765e+01
336.862610	1.279546	city	3	0	0.000000	0.912024	0	0	0	1	OmissionError	1.197825	0.806960	1	0	2.852941e+01
338.142212	1.279654	city	5	1	1.180986	1.180986	0	1	0	0	CorrectCommission	0.489658	0.812239	1	0	2.844118e+01
339.421783	1.279504	city	1	1	1.657272	1.657272	0	1	0	0	CorrectCommission	0.764386	0.815440	0	0	2.835294e+01
340.701324	1.279598	city	7	1	1.196392	1.196392	0	1	0	0	CorrectCommission	0.449095	0.818349	0	0	2.826471e+01
341.980835	1.279395	city	4	1	0.857587	0.857587	0	1	0	0	CorrectCommission	1.341156	0.822999	0	0	2.817647e+01
343.267059	1.293073	city	6	1	1.509233	1.509233	0	1	0	0	CorrectCommission	0.374606	0.831272	0	0	2.808824e+01
343.913605	8.357254	break	0	1	0.886905	0.886905	0	0	0	0	ThoughtProbe	1.263963	0.844618	0	28	28
352.917297	1.292893	city	10	1	1.521198	1.521198	0	1	0	0	CorrectCommission	0.406108	0.863715	0	0	2.791304e+01
354.203552	1.279612	city	6	1	1.470606	1.470606	0	1	0	0	CorrectCommission	0.272902	0.888370	0	0	2.782609e+01
355.483124	1.279556	city	7	1	1.396220	1.396220	0	1	0	0	CorrectCommission	0.077045	0.917479	0	0	2.773913e+01
356.769348	1.292884	city	8	1	1.350593	1.350593	0	1	0	0	CorrectCommission	0.043088	0.949206	0	0	2.765217e+01
358.055542	1.279472	city	10	1	0.857635	0.857635	0	1	0	0	CorrectCommission	1.341030	0.981260	0	0	2.756522e+01
359.335052	1.279576	city	2	1	0.514030	0.514030	0	1	0	0	CorrectCommission	2.245730	1.011276	0	0	2.747826e+01
360.614685	1.279715	city	3	1	0.485053	0.485053	0	1	0	0	CorrectCommission	2.322024	1.037210	0	0	2.739130e+01
361.894348	1.279609	city	2	1	0.591094	0.591094	0	1	0	0	CorrectCommission	2.042823	1.057652	0	0	2.730435e+01
363.173859	1.279388	city	6	1	1.604006	1.604006	0	1	0	0	CorrectCommission	0.624138	1.071926	0	0	2.721739e+01
364.453339	1.279577	city	3	1	1.176979	1.176979	0	1	0	0	CorrectCommission	0.500209	1.080066	0	0	2.713043e+01
365.732941	1.279614	city	9	1	1.017884	1.017884	0	1	0	0	CorrectCommission	0.919099	1.082617	0	0	2.704348e+01
367.013031	1.280547	mountain	5	1	1.230836	1.230836	0	0	1	0	CommissionError	0.358406	1.080430	0	0	2.695652e+01
368.292603	1.278646	city	1	0	0.000000	1.530325	0	0	0	1	OmissionError	0.430140	1.074510	0	0	2.686957e+01
369.571777	1.279672	city	2	0	0.000000	1.837055	0	0	0	1	OmissionError	1.237749	1.065879	0	0	2.678261e+01
370.851379	1.279525	city	3	0	0.000000	2.071728	0	0	0	1	OmissionError	1.855633	1.055561	0	0	2.669565e+01
372.130859	1.279471	city	2	0	0.000000	2.155044	0	0	0	1	OmissionError	2.075001	1.044616	0	0	2.660870e+01
373.410492	1.279741	mountain	9	1	2.007705	2.007705	0	0	1	0	CommissionError	1.687064	1.034179	0	0	2.652174e+01
374.690155	1.279602	city	4	1	1.550414	1.550414	0	1	0	0	CorrectCommission	0.483033	1.025406	0	0	2.643478e+01
375.969727	1.279558	city	5	0	0.000000	1.428101	0	0	0	1	OmissionError	0.160986	1.019385	0	0	2.634783e+01
377.249207	1.279413	mountain	6	0	0.000000	1.520535	1	0	0	0	CorrectOmission	0.404361	1.016858	0	0	2.626087e+01
378.535461	1.293066	city	10	0	0.000000	1.707485	0	0	0	1	OmissionError	0.896596	1.018076	0	0	2.617391e+01
379.821716	1.279446	city	5	0	0.000000	1.868723	0	0	0	1	OmissionError	1.321128	1.022565	0	0	2.608696e+01
381.107971	1.293068	city	9	1	1.884017	1.884017	0	1	0	0	CorrectCommission	1.361396	1.029127	0	0	26
382.394287	1.279569	city	1	0	0.000000	1.633137	0	0	0	1	OmissionError	0.700838	1.035827	0	0	2.591304e+01
383.673767	1.279423	city	6	1	1.398716	1.398716	0	1	0	0	CorrectCommission	0.083617	1.040267	0	0	2.582609e+01
384.959961	1.292922	mountain	1	1	1.463388	1.463388	0	0	1	0	CommissionError	0.253897	1.039907	0	0	2.573913e+01
386.246277	1.279721	city	2	1	0.484566	0.484566	0	1	0	0	CorrectCommission	2.323307	1.032465	0	0	2.565217e+01
387.525940	1.279581	city	5	0	0.000000	0.328737	0	0	0	1	OmissionError	2.733600	1.016307	0	0	2.556522e+01
388.805511	1.279570	city	3	0	0.000000	0.635333	0	0	0	1	OmissionError	1.926343	0.990831	0	0	2.547826e+01
390.098328	1.306070	city	9	1	1.043789	1.043789	0	1	0	0	CorrectCommission	0.850894	0.956579	0	0	2.539130e+01
391.391144	1.279581	city	2	1	1.193537	1.193537	0	1	0	0	CorrectCommission	0.456611	0.915186	0	0	2.530435e+01
392.670746	1.279605	city	5	1	1.074696	1.074696	0	1	0	0	CorrectCommission	0.769517	0.869060	0	0	2.521739e+01
393.950317	1.279570	city	9	1	1.178485	1.178485	0	1	0	0	CorrectCommission	0.496243	0.820968	0	0	2.513043e+01
395.236633	1.293051	city	8	1	1.691544	1.691544	0	1	0	0	CorrectCommission	0.854622	0.773594	1	0	2.504348e+01
396.522919	1.279503	city	1	1	1.337443	1.337443	0	1	0	0	CorrectCommission	0.077712	0.729103	1	0	2.495652e+01
397.802429	1.279523	city	7	1	1.405811	1.405811	0	1	0	0	CorrectCommission	0.102299	0.688884	1	0	2.486957e+01
399.081970	1.279595	city	8	1	1.246499	1.246499	0	1	0	0	CorrectCommission	0.317165	0.653433	1	0	2.478261e+01
400.361633	1.279691	city	3	1	0.911118	0.911118	0	1	0	0	CorrectCommission	1.200210	0.622465	1	0	2.469565e+01
401.641266	1.279607	city	2	1	1.192016	1.192016	0	1	0	0	CorrectCommission	0.460618	0.595157	1	0	2.460870e+01
402.920776	1.279421	city	1	1	1.124165	1.124165	0	1	0	0	CorrectCommission	0.639267	0.570558	1	0	2.452174e+01
404.200287	1.279579	city	8	1	1.498111	1.498111	0	1	0	0	CorrectCommission	0.345319	0.547880	1	0	2.443478e+01
405.486603	1.293060	city	10	1	0.537888	0.537888	0	1	0	0	CorrectCommission	2.182913	0.526826	1	0	2.434783e+01
406.786255	1.306222	city	6	1	1.417668	1.417668	0	1	0	0	CorrectCommission	0.133516	0.507707	1	0	2.426087e+01
408.085754	1.292755	city	10	1	1.485231	1.485231	0	1	0	0	CorrectCommission	0.311408	0.491565	1	0	2.417391e+01
409.385254	1.306247	city	9	1	1.338595	1.338595	0	1	0	0	CorrectCommission	0.074678	0.479938	1	0	2.408696e+01
410.038361	14.941816	break	0	0	0.000000	1.364258	0	0	0	0	ThoughtProbe	0.007108	0.474677	1	24	24
425.626678	1.293012	city	4	0	0.000000	1.451289	0	0	0	1	OmissionError	0.222040	0.477611	1	0	2.385294e+01
426.912964	1.279552	city	10	1	1.488757	1.488757	0	1	0	0	CorrectCommission	0.320691	0.490231	1	0	2.370588e+01
428.219147	1.332804	city	7	1	1.365730	1.365730	0	1	0	0	CorrectCommission	0.003235	0.513402	1	0	2.355882e+01
429.551971	1.332824	city	3	1	1.620934	1.620934	0	1	0	0	CorrectCommission	0.668709	0.547170	1	0	2.341176e+01
430.911499	1.386223	mountain	3	1	1.075131	1.075131	0	0	1	0	CommissionError	0.768371	0.590647	1	0	2.326471e+01
432.277802	1.346398	city	3	1	1.684464	1.684464	0	1	0	0	CorrectCommission	0.835981	0.641996	1	0	2.311765e+01
433.604126	1.306250	city	7	1	1.323290	1.323290	0	1	0	0	CorrectCommission	0.114976	0.698476	1	0	2.297059e+01
434.910309	1.306132	city	2	1	1.289638	1.289638	0	1	0	0	CorrectCommission	0.203581	0.756613	1	0	2.282353e+01
436.216461	1.306169	city	10	0	0.000000	1.507297	0	0	0	1	OmissionError	0.369507	0.812464	0	0	2.267647e+01
437.509399	1.279736	city	2	1	1.789718	1.789718	0	1	0	0	CorrectCommission	1.113111	0.861973	0	0	2.252941e+01
438.802399	1.306215	city	10	0	0.000000	1.950350	0	0	0	1	OmissionError	1.536051	0.901406	0	0	2.238235e+01
440.101959	1.292908	city	9	0	0.000000	2.015449	0	0	0	1	OmissionError	1.707452	0.927787	0	0	2.223529e+01
441.408173	1.319566	city	1	0	0.000000	2.011266	0	0	0	1	OmissionError	1.696440	0.939282	0	0	2.208824e+01
442.707764	1.279604	city	3	0	0.000000	1.964057	0	0	0	1	OmissionError	1.572140	0.935417	0	0	2.194118e+01
443.987366	1.279571	city	4	1	1.900075	1.900075	0	1	0	0	CorrectCommission	1.403677	0.917176	0	0	2.179412e+01
445.293518	1.332765	city	8	1	1.845573	1.845573	0	1	0	0	CorrectCommission	1.260176	0.886845	0	0	2.164706e+01
446.672974	1.426148	mountain	9	1	1.242951	1.242951	0	0	1	0	CommissionError	0.326506	0.847732	0	0	2.150000e+01
448.045929	1.319730	city	6	1	1.271884	1.271884	0	1	0	0	CorrectCommission	0.250326	0.803718	1	0	2.135294e+01
449.378906	1.346224	city	5	1	1.701612	1.701612	0	1	0	0	CorrectCommission	0.881130	0.758818	1	0	2.120588e+01
450.738464	1.372899	city	1	1	1.190385	1.190385	0	1	0	0	CorrectCommission	0.464912	0.716722	1	0	2.105882e+01
452.078033	1.306220	city	7	1	1.422883	1.422883	0	1	0	0	CorrectCommission	0.147247	0.680481	1	0	2.091176e+01
453.404205	1.346132	city	3	1	1.206489	1.206489	0	1	0	0	CorrectCommission	0.422509	0.652272	1	0	2.076471e+01
454.723694	1.292836	city	6	1	1.376544	1.376544	0	1	0	0	CorrectCommission	0.025238	0.633331	1	0	2.061765e+01
456.009979	1.279762	city	9	1	0.994616	0.994616	0	1	0	0	CorrectCommission	0.980363	0.624015	1	0	2.047059e+01
457.296326	1.292899	city	7	0	0.000000	0.936926	0	0	0	1	OmissionError	1.132261	0.623916	1	0	2.032353e+01
458.589111	1.292731	city	3	0	0.000000	1.080386	0	0	0	1	OmissionError	0.754533	0.632062	1	0	2.017647e+01
459.881958	1.292914	city	1	0	0.000000	1.301913	0	0	0	1	OmissionError	0.171260	0.647111	1	0	2.002941e+01
461.174927	1.293058	city	7	0	0.000000	1.478421	0	0	0	1	OmissionError	0.293478	0.667517	1	0	1.988235e+01
462.474579	1.306243	city	9	1	1.486825	1.486825	0	1	0	0	CorrectCommission	0.315604	0.691689	1	0	1.973529e+01
463.787415	1.319405	city	5	1	1.204038	1.204038	0	1	0	0	CorrectCommission	0.428962	0.718129	1	0	1.958824e+01
465.100281	1.306308	city	9	1	1.661103	1.661103	0	1	0	0	CorrectCommission	0.774472	0.745549	1	0	1.944118e+01
466.426605	1.346341	city	7	0	0.000000	1.909032	0	0	0	1	OmissionError	1.427260	0.772930	1	0	1.929412e+01
467.746124	1.292745	city	10	0	0.000000	1.969877	0	0	0	1	OmissionError	1.587464	0.799547	1	0	1.914706e+01
468.392517	8.650471	break	0	0	0.000000	1.865691	0	0	0	0	ThoughtProbe	1.313147	0.824905	0	19	19
477.682770	1.279587	city	3	1	1.618527	1.618527	0	1	0	0	CorrectCommission	0.662372	0.848628	0	0	1.880000e+01
478.995667	1.346206	city	8	1	1.250436	1.250436	0	1	0	0	CorrectCommission	0.306799	0.870271	0	0	1.860000e+01
480.321930	1.306314	city	2	1	1.260062	1.260062	0	1	0	0	CorrectCommission	0.281454	0.889128	0	0	1.840000e+01
481.628235	1.306326	city	9	1	1.449391	1.449391	0	1	0	0	CorrectCommission	0.217043	0.904133	0	0	1.820000e+01
482.921112	1.279412	city	10	1	1.822282	1.822282	0	1	0	0	CorrectCommission	1.198852	0.913875	0	0	18
484.227264	1.332906	mountain	6	0	0.000000	1.854862	1	0	0	0	CorrectOmission	1.284633	0.916722	0	0	1.780000e+01
485.540253	1.293079	city	3	1	1.806540	1.806540	0	1	0	0	CorrectCommission	1.157402	0.911109	0	0	1.760000e+01
486.839905	1.306222	city	5	1	1.936725	1.936725	0	1	0	0	CorrectCommission	1.500175	0.895876	0	0	1.740000e+01
488.146149	1.306229	city	7	0	0.000000	1.956862	0	0	0	1	OmissionError	1.553196	0.870570	0	0	1.720000e+01
489.439056	1.279587	city	8	0	0.000000	1.895790	0	0	0	1	OmissionError	1.392396	0.835684	0	0	17
490.718475	1.279276	city	7	0	0.000000	1.782348	0	0	0	1	OmissionError	1.093707	0.792758	1	0	1.680000e+01
492.004730	1.293203	city	1	0	0.000000	1.645375	0	0	0	1	OmissionError	0.733062	0.744235	1	0	1.660000e+01
493.291138	1.279602	mountain	4	0	0.000000	1.513710	1	0	0	0	CorrectOmission	0.386393	0.693235	1	0	1.640000e+01
494.570709	1.279592	city	3	0	0.000000	1.416192	0	0	0	1	OmissionError	0.129632	0.643187	1	0	1.620000e+01
495.856964	1.292874	city	6	1	1.381660	1.381660	0	1	0	0	CorrectCommission	0.038710	0.597400	1	0	16
497.183167	1.359578	city	1	1	1.438953	1.438953	0	1	0	0	CorrectCommission	0.189560	0.558721	1	0	1.580000e+01
498.522736	1.319536	city	9	1	1.168589	1.168589	0	1	0	0	CorrectCommission	0.522298	0.529229	1	0	1.560000e+01
499.835571	1.306135	city	1	1	1.049445	1.049445	0	1	0	0	CorrectCommission	0.836000	0.510056	1	0	1.540000e+01
501.161743	1.346226	city	4	1	1.327610	1.327610	0	1	0	0	CorrectCommission	0.103603	0.501369	1	0	1.520000e+01
502.501404	1.333057	city	3	1	1.230951	1.230951	0	1	0	0	CorrectCommission	0.358103	0.502451	1	0	15
503.827667	1.319509	city	10	0	0.000000	1.255476	0	0	0	1	OmissionError	0.293529	0.511828	1	0	1.480000e+01
505.127228	1.279604	city	7	0	0.000000	1.362105	0	0	0	1	OmissionError	0.012778	0.527531	1	0	1.460000e+01
506.413483	1.292883	city	9	0	0.000000	1.511758	0	0	0	1	OmissionError	0.381252	0.547367	1	0	1.440000e+01
507.706390	1.292928	city	10	0	0.000000	1.665353	0	0	0	1	OmissionError	0.785661	0.569180	1	0	1.420000e+01
509.019287	1.332854	city	8	0	0.000000	1.783809	0	0	0	1	OmissionError	1.097554	0.591086	1	0	14
510.345428	1.319426	city	7	0	0.000000	1.828047	0	0	0	1	OmissionError	1.214031	0.611690	1	0	1.380000e+01
511.644928	1.279583	city	9	1	1.758986	1.758986	0	1	0	0	CorrectCommission	1.032194	0.630187	1	0	1.360000e+01
512.944519	1.319589	city	3	1	1.537544	1.537544	0	1	0	0	CorrectCommission	0.449146	0.646354	1	0	1.340000e+01
514.257507	1.306395	city	4	1	1.323002	1.323002	0	1	0	0	CorrectCommission	0.115736	0.660502	1	0	1.320000e+01
515.577087	1.332732	mountain	6	1	1.114017	1.114017	0	0	1	0	CommissionError	0.665986	0.673316	1	0	13
516.909973	1.333044	city	2	1	1.276462	1.276462	0	1	0	0	CorrectCommission	0.238274	0.685666	1	0	1.280000e+01
518.229553	1.306162	city	10	1	1.709980	1.709980	0	1	0	0	CorrectCommission	0.903163	0.698511	1	0	1.260000e+01
519.549133	1.332991	city	8	1	1.816728	1.816728	0	1	0	0	CorrectCommission	1.184227	0.712709	1	0	1.240000e+01
520.875366	1.319437	city	2	1	1.454339	1.454339	0	1	0	0	CorrectCommission	0.230070	0.728962	1	0	1.220000e+01
522.221497	1.372814	city	8	1	1.778169	1.778169	0	1	0	0	CorrectCommission	1.082702	0.747771	1	0	12
523.587646	1.359565	city	2	1	1.818542	1.818542	0	1	0	0	CorrectCommission	1.189005	0.769341	1	0	1.180000e+01
524.940552	1.346237	city	7	1	1.314591	1.314591	0	1	0	0	CorrectCommission	0.137881	0.793608	1	0	1.160000e+01
526.266846	1.306396	city	9	1	1.220901	1.220901	0	1	0	0	CorrectCommission	0.384564	0.820240	0	0	1.140000e+01
527.579834	1.319501	city	3	0	0.000000	1.127210	0	0	0	1	OmissionError	0.631247	0.848623	0	0	1.120000e+01
528.239563	11.476260	break	0	0	0.000000	1.033520	0	0	0	0	ThoughtProbe	0.877930	0.877930	0	11	11
