onset	duration	trial_type	image_type	Press	ReactionTime	ReactionTime_Interpolated	CorrectOmission	CorrectCommission	CommissionError	OmissionError	response_type	nonsmoothVarianceTimeCourse	VarianceTimeCourse	In_the_Zone	ThoughtProbe	ThoughtProbe_Interpolated
0.652644	1.279426	mountain	2	1	0.604969	0.604969	0	0	1	0	CommissionError	2.747971	2.747971	0	0	75
1.932085	1.279455	city	5	1	1.497598	1.497598	0	1	0	0	CorrectCommission	1.506330	2.410606	0	0	75
3.218411	1.293197	city	9	1	1.297702	1.297702	0	1	0	0	CorrectCommission	0.553618	2.085847	0	0	75
4.511391	1.292762	city	7	1	1.178578	1.178578	0	1	0	0	CorrectCommission	0.014131	1.784984	0	0	75
5.797632	1.279721	mountain	6	0	0.000000	1.198089	1	0	0	0	CorrectOmission	0.078858	1.516916	0	0	75
7.077293	1.279601	city	1	1	1.229383	1.229383	0	1	0	0	CorrectCommission	0.228006	1.287446	0	0	75
8.356875	1.279562	mountain	9	0	0.000000	1.145608	1	0	0	0	CorrectOmission	0.171270	1.099052	0	0	75
9.636458	1.279605	city	10	1	1.030030	1.030030	0	1	0	0	CorrectCommission	0.722118	0.951135	0	0	75
10.915967	1.279411	city	5	1	0.965915	0.965915	0	1	0	0	CorrectCommission	1.027690	0.840591	0	0	75
12.195539	1.279735	city	2	1	1.073525	1.073525	0	1	0	0	CorrectCommission	0.514817	0.762610	0	0	75
13.475173	1.279531	city	3	1	1.070848	1.070848	0	1	0	0	CorrectCommission	0.527578	0.711554	1	0	75
14.754711	1.279545	city	6	1	0.964348	0.964348	0	1	0	0	CorrectCommission	1.035160	0.681676	1	0	75
16.034315	1.279664	city	9	1	1.027229	1.027229	0	1	0	0	CorrectCommission	0.735467	0.667655	1	0	75
17.313942	1.279588	city	3	1	1.076114	1.076114	0	1	0	0	CorrectCommission	0.502481	0.664926	1	0	75
18.593512	1.279551	city	8	1	1.075955	1.075955	0	1	0	0	CorrectCommission	0.503236	0.669742	1	0	75
19.873083	1.279594	city	6	1	1.040354	1.040354	0	1	0	0	CorrectCommission	0.672911	0.679054	1	0	75
21.159336	1.292911	city	8	1	1.084691	1.084691	0	1	0	0	CorrectCommission	0.461602	0.690324	1	0	75
22.445578	1.279572	city	5	1	1.016060	1.016060	0	1	0	0	CorrectCommission	0.788698	0.701362	1	0	75
23.725157	1.279586	city	4	1	1.175350	1.175350	0	1	0	0	CorrectCommission	0.029517	0.710181	1	0	75
25.004690	1.279483	city	7	1	1.071406	1.071406	0	1	0	0	CorrectCommission	0.524919	0.715021	0	0	75
26.284260	1.279655	city	1	1	0.910899	0.910899	0	1	0	0	CorrectCommission	1.289900	0.714407	0	0	75
27.563877	1.279578	city	6	1	0.863352	0.863352	0	1	0	0	CorrectCommission	1.516509	0.707300	1	0	75
28.843468	1.279603	city	8	1	0.911271	0.911271	0	1	0	0	CorrectCommission	1.288126	0.693280	1	0	75
30.123056	1.279578	city	5	1	0.910899	0.910899	0	1	0	0	CorrectCommission	1.289898	0.672623	1	0	75
31.402628	1.279562	city	9	1	1.096940	1.096940	0	1	0	0	CorrectCommission	0.403221	0.646265	1	0	75
32.682129	1.279438	city	5	1	1.176703	1.176703	0	1	0	0	CorrectCommission	0.023066	0.615688	1	0	75
33.961704	1.279719	city	7	1	1.071751	1.071751	0	1	0	0	CorrectCommission	0.523275	0.582657	1	0	75
35.241360	1.279592	city	10	1	1.017812	1.017812	0	1	0	0	CorrectCommission	0.780348	0.548938	1	0	75
36.520889	1.279467	city	2	1	1.156588	1.156588	0	1	0	0	CorrectCommission	0.118937	0.516083	1	0	75
37.820457	1.319664	city	9	1	1.173899	1.173899	0	1	0	0	CorrectCommission	0.036432	0.485257	1	0	75
39.120071	1.279567	city	2	1	1.197556	1.197556	0	1	0	0	CorrectCommission	0.076316	0.457115	1	0	75
40.419655	1.319601	city	3	1	1.301802	1.301802	0	1	0	0	CorrectCommission	0.573160	0.431942	1	0	75
41.725895	1.292880	mountain	4	0	0.000000	1.359059	1	0	0	0	CorrectOmission	0.846046	0.409761	1	0	75
43.012138	1.279602	city	1	1	1.354136	1.354136	0	1	0	0	CorrectCommission	0.822582	0.390509	1	0	75
44.338295	1.372715	city	7	1	1.271844	1.271844	0	1	0	0	CorrectCommission	0.430376	0.374290	1	0	75
45.677849	1.306386	city	8	1	1.218812	1.218812	0	1	0	0	CorrectCommission	0.177626	0.361499	1	0	75
46.984158	1.306233	city	2	1	1.209699	1.209699	0	1	0	0	CorrectCommission	0.134193	0.352897	1	0	75
48.283741	1.292932	city	4	1	1.194715	1.194715	0	1	0	0	CorrectCommission	0.062779	0.349574	1	0	75
49.576580	1.292747	city	2	1	1.148207	1.148207	0	1	0	0	CorrectCommission	0.158881	0.352856	1	0	75
50.862820	1.279737	city	6	1	1.035157	1.035157	0	1	0	0	CorrectCommission	0.697680	0.364099	1	0	75
52.149132	1.292884	city	4	1	1.191237	1.191237	0	1	0	0	CorrectCommission	0.046201	0.384456	1	0	75
53.462029	1.332912	city	9	1	1.228100	1.228100	0	1	0	0	CorrectCommission	0.221891	0.414660	1	0	75
54.781517	1.306064	city	3	1	1.102215	1.102215	0	1	0	0	CorrectCommission	0.378078	0.454753	1	0	75
56.081036	1.292969	city	1	1	1.208419	1.208419	0	1	0	0	CorrectCommission	0.128092	0.503945	1	0	75
57.380672	1.306307	city	6	1	1.136693	1.136693	0	1	0	0	CorrectCommission	0.213756	0.560546	1	0	75
61.959217	7.850786	break	0	0	0.000000	1.225829	0	0	0	0	ThoughtProbe	0.211070	0.621978	1	75	75
66.531082	1.292936	city	7	1	1.249307	1.249307	0	1	0	0	CorrectCommission	0.322967	0.684982	1	0	7.317647e+01
67.817314	1.279540	city	6	1	0.980608	0.980608	0	1	0	0	CorrectCommission	0.957666	0.745918	0	0	7.135294e+01
69.096878	1.279578	city	2	1	0.825647	0.825647	0	1	0	0	CorrectCommission	1.696215	0.801119	0	0	6.952941e+01
70.383118	1.292911	mountain	8	0	0.000000	1.188159	1	0	0	0	CorrectOmission	0.031533	0.847330	0	0	6.770588e+01
71.669289	1.279431	city	3	1	1.633566	1.633566	0	1	0	0	CorrectCommission	2.154359	0.882159	0	0	6.588235e+01
72.948853	1.279686	city	4	1	1.727290	1.727290	0	1	0	0	CorrectCommission	2.601047	0.904174	0	0	6.405882e+01
74.228516	1.279641	city	1	0	0.000000	1.345170	0	0	0	1	OmissionError	0.779854	0.913128	0	0	6.223529e+01
75.508072	1.279482	city	3	1	0.974921	0.974921	0	1	0	0	CorrectCommission	0.984769	0.909941	0	0	6.041176e+01
76.800972	1.306314	city	10	1	1.104252	1.104252	0	1	0	0	CorrectCommission	0.368372	0.896345	0	0	5.858824e+01
78.100586	1.292911	city	6	1	1.047075	1.047075	0	1	0	0	CorrectCommission	0.640881	0.874650	0	0	5.676471e+01
79.400177	1.306278	city	1	1	1.056489	1.056489	0	1	0	0	CorrectCommission	0.596013	0.847453	0	0	5.494118e+01
80.699760	1.292890	city	8	1	0.992563	0.992563	0	1	0	0	CorrectCommission	0.900686	0.817385	0	0	5.311765e+01
82.005951	1.319478	city	1	1	0.975848	0.975848	0	1	0	0	CorrectCommission	0.980348	0.786925	0	0	5.129412e+01
83.312172	1.292971	city	9	1	1.087698	1.087698	0	1	0	0	CorrectCommission	0.447270	0.758385	0	0	4.947059e+01
84.598442	1.279564	mountain	9	0	0.000000	1.314754	1	0	0	0	CorrectOmission	0.634889	0.733924	0	0	4.764706e+01
85.877945	1.279453	city	7	1	1.364618	1.364618	0	1	0	0	CorrectCommission	0.872540	0.715537	0	0	4.582353e+01
87.170860	1.306377	city	3	1	0.944887	0.944887	0	1	0	0	CorrectCommission	1.127909	0.705097	1	0	44
88.477104	1.306101	city	9	1	0.982704	0.982704	0	1	0	0	CorrectCommission	0.947672	0.704316	1	0	4.217647e+01
89.776596	1.292882	city	2	1	1.154191	1.154191	0	1	0	0	CorrectCommission	0.130359	0.714594	0	0	4.035294e+01
91.062912	1.279756	city	10	1	1.153664	1.153664	0	1	0	0	CorrectCommission	0.132873	0.736824	0	0	3.852941e+01
92.342506	1.279437	city	6	1	1.283044	1.283044	0	1	0	0	CorrectCommission	0.483758	0.771121	0	0	3.670588e+01
93.622032	1.279609	city	10	1	1.191640	1.191640	0	1	0	0	CorrectCommission	0.048121	0.816657	0	0	3.488235e+01
94.901672	1.279672	city	6	1	1.247929	1.247929	0	1	0	0	CorrectCommission	0.316399	0.871620	0	0	3.305882e+01
96.201309	1.319594	city	3	1	0.943587	0.943587	0	1	0	0	CorrectCommission	1.134105	0.933190	0	0	3.123529e+01
97.500893	1.279576	city	9	1	1.092745	1.092745	0	1	0	0	CorrectCommission	0.423216	0.997772	0	0	2.941176e+01
98.793800	1.306238	city	10	1	1.049798	1.049798	0	1	0	0	CorrectCommission	0.627902	1.061474	0	0	2.758824e+01
100.086632	1.279427	city	2	1	1.949449	1.949449	0	1	0	0	CorrectCommission	3.659866	1.120436	0	0	2.576471e+01
101.372871	1.293054	city	3	1	1.680433	1.680433	0	1	0	0	CorrectCommission	2.377728	1.171250	0	0	2.394118e+01
102.685844	1.332893	city	9	1	1.144080	1.144080	0	1	0	0	CorrectCommission	0.178550	1.211487	0	0	2.211765e+01
103.992088	1.279587	city	7	1	0.993588	0.993588	0	1	0	0	CorrectCommission	0.895801	1.239824	0	0	2.029412e+01
105.291618	1.319487	city	1	1	0.903831	0.903831	0	1	0	0	CorrectCommission	1.323584	1.256041	0	0	1.847059e+01
106.624512	1.346301	city	7	1	0.998389	0.998389	0	1	0	0	CorrectCommission	0.872919	1.260988	0	0	1.664706e+01
107.937447	1.279558	city	6	1	1.632852	1.632852	0	1	0	0	CorrectCommission	2.150956	1.256365	0	0	1.482353e+01
108.577225	9.436786	break	0	0	0.000000	1.745154	0	0	0	0	ThoughtProbe	2.686189	1.244334	0	13	13
118.653816	1.279612	city	2	1	1.523329	1.523329	0	1	0	0	CorrectCommission	1.628964	1.227168	0	0	1.326471e+01
119.933464	1.279680	city	10	1	1.155413	1.155413	0	1	0	0	CorrectCommission	0.124536	1.206856	0	0	1.352941e+01
121.213089	1.279575	city	6	1	1.314660	1.314660	0	1	0	0	CorrectCommission	0.634440	1.184721	0	0	1.379412e+01
122.506012	1.306264	city	10	1	1.059171	1.059171	0	1	0	0	CorrectCommission	0.583232	1.161163	0	0	1.405882e+01
123.798912	1.279544	mountain	8	0	0.000000	1.107291	1	0	0	0	CorrectOmission	0.353890	1.135684	0	0	1.432353e+01
125.085136	1.292896	city	7	1	1.165961	1.165961	0	1	0	0	CorrectCommission	0.074265	1.107099	0	0	1.458824e+01
126.384689	1.306218	city	1	1	0.942123	0.942123	0	1	0	0	CorrectCommission	1.141086	1.073944	0	0	1.485294e+01
127.690880	1.306161	city	5	1	2.024040	2.024040	0	1	0	0	CorrectCommission	4.015369	1.034961	0	0	1.511765e+01
128.990402	1.292869	city	4	0	0.000000	1.695135	0	0	0	1	OmissionError	2.447796	0.989581	0	0	1.538235e+01
130.283356	1.293046	city	5	1	1.008599	1.008599	0	1	0	0	CorrectCommission	0.824259	0.938384	0	0	1.564706e+01
131.569672	1.279600	city	2	1	1.017622	1.017622	0	1	0	0	CorrectCommission	0.781253	0.883099	0	0	1.591176e+01
132.875839	1.332732	city	9	1	1.147585	1.147585	0	1	0	0	CorrectCommission	0.161847	0.826365	0	0	1.617647e+01
134.188660	1.292891	city	10	1	1.153270	1.153270	0	1	0	0	CorrectCommission	0.134752	0.771394	0	0	1.644118e+01
135.474976	1.279754	city	9	1	1.155712	1.155712	0	1	0	0	CorrectCommission	0.123114	0.721391	0	0	1.670588e+01
136.774643	1.319571	city	6	1	1.061912	1.061912	0	1	0	0	CorrectCommission	0.570168	0.678974	1	0	1.697059e+01
138.074203	1.279553	city	5	1	1.141233	1.141233	0	1	0	0	CorrectCommission	0.192121	0.645836	1	0	1.723529e+01
139.360428	1.292891	city	9	1	1.261207	1.261207	0	1	0	0	CorrectCommission	0.379682	0.622550	1	0	1.750000e+01
140.653336	1.292923	city	2	1	1.153766	1.153766	0	1	0	0	CorrectCommission	0.132388	0.608547	1	0	1.776471e+01
141.952835	1.306084	mountain	7	1	1.062494	1.062494	0	0	1	0	CommissionError	0.567394	0.602343	1	0	1.802941e+01
143.245743	1.279733	city	7	1	1.421495	1.421495	0	1	0	0	CorrectCommission	1.143620	0.601906	1	0	1.829412e+01
144.552063	1.332909	city	3	1	1.000250	1.000250	0	1	0	0	CorrectCommission	0.864048	0.605062	1	0	1.855882e+01
145.858231	1.279434	city	2	1	1.054550	1.054550	0	1	0	0	CorrectCommission	0.605254	0.609905	1	0	1.882353e+01
147.137741	1.279574	city	6	1	0.993905	0.993905	0	1	0	0	CorrectCommission	0.894291	0.615073	1	0	1.908824e+01
148.424057	1.293059	city	9	1	1.017675	1.017675	0	1	0	0	CorrectCommission	0.781000	0.619866	1	0	1.935294e+01
149.723618	1.306074	city	10	1	0.969546	0.969546	0	1	0	0	CorrectCommission	1.010384	0.624198	1	0	1.961765e+01
151.023178	1.293050	city	8	1	1.102505	1.102505	0	1	0	0	CorrectCommission	0.376697	0.628406	1	0	1.988235e+01
152.316177	1.292934	city	3	1	1.205426	1.205426	0	1	0	0	CorrectCommission	0.113825	0.633025	1	0	2.014706e+01
153.622437	1.319576	city	4	1	1.254241	1.254241	0	1	0	0	CorrectCommission	0.346481	0.638466	1	0	2.041176e+01
154.935257	1.306079	city	3	1	1.099540	1.099540	0	1	0	0	CorrectCommission	0.390831	0.644781	1	0	2.067647e+01
156.241409	1.306229	city	9	1	1.045098	1.045098	0	1	0	0	CorrectCommission	0.650304	0.651559	1	0	2.094118e+01
157.554306	1.319562	city	2	1	1.085285	1.085285	0	1	0	0	CorrectCommission	0.458769	0.657976	1	0	2.120588e+01
158.860611	1.293047	city	3	1	0.920849	0.920849	0	1	0	0	CorrectCommission	1.242479	0.662948	1	0	2.147059e+01
160.153595	1.292907	city	7	1	1.002348	1.002348	0	1	0	0	CorrectCommission	0.854051	0.665344	1	0	2.173529e+01
160.800049	8.463747	break	0	0	0.000000	1.281464	0	0	0	0	ThoughtProbe	0.476228	0.664310	1	22	22
169.910324	1.293071	city	2	1	1.406244	1.406244	0	1	0	0	CorrectCommission	1.070933	0.659466	1	0	2.315000e+01
171.236572	1.359413	city	5	1	1.024734	1.024734	0	1	0	0	CorrectCommission	0.747360	0.651094	1	0	2.430000e+01
172.556122	1.279697	city	9	1	0.913309	0.913309	0	1	0	0	CorrectCommission	1.278414	0.640179	1	0	2.545000e+01
173.842361	1.292769	city	10	1	1.011870	1.011870	0	1	0	0	CorrectCommission	0.808666	0.628305	1	0	2.660000e+01
175.141922	1.306371	city	4	1	1.158113	1.158113	0	1	0	0	CorrectCommission	0.111670	0.617454	1	0	2.775000e+01
176.441559	1.292909	city	2	1	1.152493	1.152493	0	1	0	0	CorrectCommission	0.138454	0.609682	1	0	2.890000e+01
177.741058	1.306092	city	4	1	1.101384	1.101384	0	1	0	0	CorrectCommission	0.382041	0.606763	1	0	3.005000e+01
179.047302	1.306377	city	10	1	1.043918	1.043918	0	1	0	0	CorrectCommission	0.655928	0.609872	1	0	3.120000e+01
180.346939	1.292915	city	5	1	1.226016	1.226016	0	1	0	0	CorrectCommission	0.211960	0.619362	1	0	3.235000e+01
181.633118	1.279431	city	9	1	1.245178	1.245178	0	1	0	0	CorrectCommission	0.303285	0.634673	1	0	3.350000e+01
182.932617	1.319574	city	4	1	1.152219	1.152219	0	1	0	0	CorrectCommission	0.139758	0.654357	1	0	3.465000e+01
184.238922	1.293043	city	5	1	0.929628	0.929628	0	1	0	0	CorrectCommission	1.200638	0.676290	1	0	3.580000e+01
185.525269	1.279632	city	1	1	0.993033	0.993033	0	1	0	0	CorrectCommission	0.898447	0.697929	1	0	3.695000e+01
186.818176	1.306192	mountain	7	0	0.000000	1.242350	1	0	0	0	CorrectOmission	0.289808	0.716761	0	0	3.810000e+01
188.111053	1.279560	mountain	4	0	0.000000	1.474462	1	0	0	0	CorrectOmission	1.396063	0.730631	0	0	3.925000e+01
189.397293	1.292925	city	1	1	1.486252	1.486252	0	1	0	0	CorrectCommission	1.452256	0.738019	0	0	4.040000e+01
190.710205	1.332887	city	2	1	1.074604	1.074604	0	1	0	0	CorrectCommission	0.509677	0.738312	0	0	4.155000e+01
192.016357	1.279425	city	6	1	0.915586	0.915586	0	1	0	0	CorrectCommission	1.267559	0.731869	0	0	4.270000e+01
193.302551	1.292963	city	4	1	0.874639	0.874639	0	1	0	0	CorrectCommission	1.462718	0.719890	0	0	4.385000e+01
194.602173	1.306279	city	2	1	1.176631	1.176631	0	1	0	0	CorrectCommission	0.023410	0.704233	1	0	45
195.908478	1.306315	city	5	1	1.048414	1.048414	0	1	0	0	CorrectCommission	0.634500	0.687146	1	0	4.615000e+01
197.221420	1.319594	city	7	1	1.194789	1.194789	0	1	0	0	CorrectCommission	0.063130	0.670859	1	0	4.730000e+01
198.554245	1.346046	city	2	1	1.084766	1.084766	0	1	0	0	CorrectCommission	0.461242	0.657345	1	0	4.845000e+01
199.880463	1.306390	city	3	1	1.068617	1.068617	0	1	0	0	CorrectCommission	0.538209	0.648048	1	0	4.960000e+01
201.193344	1.319383	city	4	1	1.248241	1.248241	0	1	0	0	CorrectCommission	0.317886	0.643814	1	0	5.075000e+01
202.492874	1.279667	mountain	7	0	0.000000	1.354474	1	0	0	0	CorrectOmission	0.824194	0.644855	1	0	5.190000e+01
203.779205	1.292987	city	10	1	1.382364	1.382364	0	1	0	0	CorrectCommission	0.957121	0.650834	1	0	5.305000e+01
205.072144	1.292899	city	4	1	1.326962	1.326962	0	1	0	0	CorrectCommission	0.693074	0.661001	1	0	5.420000e+01
206.391647	1.346091	city	6	1	1.112476	1.112476	0	1	0	0	CorrectCommission	0.329174	0.674360	1	0	5.535000e+01
207.717880	1.306377	city	8	1	1.063398	1.063398	0	1	0	0	CorrectCommission	0.563082	0.689781	1	0	5.650000e+01
209.010864	1.279592	city	6	1	1.023305	1.023305	0	1	0	0	CorrectCommission	0.754168	0.706106	1	0	5.765000e+01
210.303772	1.306242	city	4	1	1.039718	1.039718	0	1	0	0	CorrectCommission	0.675943	0.722249	0	0	5.880000e+01
211.610001	1.306214	city	9	1	0.913201	0.913201	0	1	0	0	CorrectCommission	1.278928	0.737255	0	0	5.995000e+01
212.909576	1.292938	city	6	1	0.995413	0.995413	0	1	0	0	CorrectCommission	0.887103	0.750252	0	0	6.110000e+01
214.209091	1.306085	city	7	1	1.263611	1.263611	0	1	0	0	CorrectCommission	0.391140	0.760540	0	0	6.225000e+01
215.501968	1.279679	city	3	1	1.313629	1.313629	0	1	0	0	CorrectCommission	0.629525	0.767591	0	0	6.340000e+01
216.794876	1.306114	city	1	1	1.339989	1.339989	0	1	0	0	CorrectCommission	0.755158	0.770995	0	0	6.455000e+01
218.087799	1.279756	city	3	1	1.385305	1.385305	0	1	0	0	CorrectCommission	0.971134	0.770542	0	0	6.570000e+01
219.374130	1.292905	city	2	1	1.382803	1.382803	0	1	0	0	CorrectCommission	0.959214	0.766244	0	0	6.685000e+01
220.020584	9.090208	break	0	0	0.000000	1.416351	0	0	0	0	ThoughtProbe	1.119101	0.758359	0	68	68
229.750641	1.279685	city	6	1	1.320086	1.320086	0	1	0	0	CorrectCommission	0.660300	0.747366	0	0	67
231.063599	1.346231	city	7	1	0.928150	0.928150	0	1	0	0	CorrectCommission	1.207682	0.733990	0	0	66
232.383102	1.292771	mountain	5	0	0.000000	1.155543	1	0	0	0	CorrectOmission	0.123915	0.719054	0	0	65
233.682587	1.306209	city	7	1	1.440388	1.440388	0	1	0	0	CorrectCommission	1.233662	0.703466	1	0	64
235.008881	1.346391	city	4	1	1.220803	1.220803	0	1	0	0	CorrectCommission	0.187112	0.688015	1	0	6.300000e+01
236.328537	1.292899	city	7	1	1.150085	1.150085	0	1	0	0	CorrectCommission	0.149929	0.673366	1	0	62
237.634705	1.319444	city	1	1	1.087431	1.087431	0	1	0	0	CorrectCommission	0.448543	0.659927	1	0	61
238.940948	1.293057	city	4	1	0.916339	0.916339	0	1	0	0	CorrectCommission	1.263974	0.647855	1	0	60
240.233917	1.292864	mountain	7	0	0.000000	0.976201	1	0	0	0	CorrectOmission	0.978667	0.637075	1	0	59
241.526810	1.292937	city	5	1	1.145055	1.145055	0	1	0	0	CorrectCommission	0.173902	0.627403	1	0	58
242.813095	1.279620	city	3	1	1.300939	1.300939	0	1	0	0	CorrectCommission	0.569045	0.618609	1	0	57
244.099258	1.292721	city	2	1	1.434561	1.434561	0	1	0	0	CorrectCommission	1.205890	0.610459	1	0	56
245.418808	1.346353	city	10	1	1.183447	1.183447	0	1	0	0	CorrectCommission	0.009076	0.602826	1	0	5.500000e+01
246.771744	1.359535	city	2	1	1.244922	1.244922	0	1	0	0	CorrectCommission	0.302065	0.595848	1	0	54
248.111313	1.319612	city	3	1	0.942201	0.942201	0	1	0	0	CorrectCommission	1.140713	0.589848	1	0	53
249.410858	1.279467	mountain	10	0	0.000000	1.105751	1	0	0	0	CorrectOmission	0.361226	0.585404	1	0	52
250.690430	1.279670	city	2	1	1.342986	1.342986	0	1	0	0	CorrectCommission	0.769440	0.583389	1	0	51
251.976715	1.292906	city	6	1	1.261316	1.261316	0	1	0	0	CorrectCommission	0.380199	0.584823	1	0	5.000000e+01
253.289627	1.332915	city	10	1	0.964679	0.964679	0	1	0	0	CorrectCommission	1.033583	0.590788	1	0	49
254.595856	1.279557	city	4	1	1.284616	1.284616	0	1	0	0	CorrectCommission	0.491247	0.602216	1	0	48
255.902084	1.332893	city	3	1	1.133565	1.133565	0	1	0	0	CorrectCommission	0.228663	0.619760	1	0	4.700000e+01
257.228241	1.319412	city	2	1	1.169641	1.169641	0	1	0	0	CorrectCommission	0.056726	0.643536	1	0	46
258.534485	1.293089	city	1	1	1.241538	1.241538	0	1	0	0	CorrectCommission	0.285936	0.673016	1	0	45
259.834076	1.306070	city	3	1	1.339629	1.339629	0	1	0	0	CorrectCommission	0.753442	0.706920	1	0	44
261.140289	1.306345	city	6	1	1.397361	1.397361	0	1	0	0	CorrectCommission	1.028595	0.743293	0	0	43
262.439911	1.292946	city	9	1	1.093163	1.093163	0	1	0	0	CorrectCommission	0.421221	0.779650	0	0	42
263.752777	1.332748	city	8	1	1.311906	1.311906	0	1	0	0	CorrectCommission	0.621315	0.813249	0	0	41
265.065674	1.293052	city	4	1	1.361948	1.361948	0	1	0	0	CorrectCommission	0.859818	0.841382	0	0	40
266.365234	1.306087	city	3	1	1.578286	1.578286	0	1	0	0	CorrectCommission	1.890890	0.861725	0	0	39
267.664825	1.293064	city	10	1	1.581566	1.581566	0	1	0	0	CorrectCommission	1.906525	0.872620	0	0	38
268.977783	1.332889	mountain	7	0	0.000000	1.340810	1	0	0	0	CorrectOmission	0.759073	0.873312	0	0	37
270.310638	1.332808	city	3	1	1.226592	1.226592	0	1	0	0	CorrectCommission	0.214704	0.864048	0	0	36
271.616852	1.279631	city	8	1	1.609485	1.609485	0	1	0	0	CorrectCommission	2.039586	0.846008	0	0	35
272.903076	1.292809	city	4	1	1.342237	1.342237	0	1	0	0	CorrectCommission	0.765874	0.821064	0	0	34
274.202667	1.306390	city	6	1	1.180885	1.180885	0	1	0	0	CorrectCommission	0.003139	0.791700	0	0	33
275.508972	1.306217	city	5	1	0.984945	0.984945	0	1	0	0	CorrectCommission	0.936995	0.760604	0	0	32
276.808563	1.292930	city	6	1	1.352491	1.352491	0	1	0	0	CorrectCommission	0.814743	0.730369	0	0	31
278.114807	1.319547	city	5	1	1.059621	1.059621	0	1	0	0	CorrectCommission	0.581086	0.703302	1	0	30
279.427704	1.306254	city	6	1	1.196248	1.196248	0	1	0	0	CorrectCommission	0.070084	0.681193	1	0	29
280.720581	1.279502	city	4	1	1.383027	1.383027	0	1	0	0	CorrectCommission	0.960280	0.665246	1	0	28
282.033478	1.346285	city	6	1	1.120834	1.120834	0	1	0	0	CorrectCommission	0.289343	0.656019	1	0	2.700000e+01
283.346405	1.279576	city	3	1	1.023176	1.023176	0	1	0	0	CorrectCommission	0.754781	0.653544	1	0	26
284.632629	1.292923	city	2	1	1.240395	1.240395	0	1	0	0	CorrectCommission	0.280492	0.657359	1	0	2.500000e+01
285.938812	1.319387	city	9	1	1.146966	1.146966	0	1	0	0	CorrectCommission	0.164793	0.666708	1	0	24
287.251617	1.306269	city	1	1	1.472877	1.472877	0	1	0	0	CorrectCommission	1.388510	0.680667	1	0	2.300000e+01
291.463654	7.117811	break	0	0	0.000000	1.330038	0	0	0	0	ThoughtProbe	0.707732	0.698244	1	22	22
295.662354	1.279557	city	1	1	1.068291	1.068291	0	1	0	0	CorrectCommission	0.539763	0.718531	0	0	2.307500e+01
296.941925	1.279601	city	2	1	1.037479	1.037479	0	1	0	0	CorrectCommission	0.686614	0.740727	0	0	2.415000e+01
298.221436	1.279420	city	8	1	0.910909	0.910909	0	1	0	0	CorrectCommission	1.289853	0.764072	0	0	2.522500e+01
299.501007	1.279737	city	7	1	1.017684	1.017684	0	1	0	0	CorrectCommission	0.780957	0.787804	0	0	2.630000e+01
300.780670	1.279575	mountain	6	0	0.000000	1.256083	1	0	0	0	CorrectOmission	0.355262	0.811127	0	0	2.737500e+01
302.060181	1.279443	city	4	1	1.388675	1.388675	0	1	0	0	CorrectCommission	0.987197	0.833092	0	0	2.845000e+01
303.339691	1.279565	city	9	1	1.178027	1.178027	0	1	0	0	CorrectCommission	0.016760	0.852605	0	0	2.952500e+01
304.619324	1.279712	city	10	1	0.982849	0.982849	0	1	0	0	CorrectCommission	0.946984	0.868561	0	0	3.060000e+01
305.898987	1.279577	city	4	1	1.390771	1.390771	0	1	0	0	CorrectCommission	0.997186	0.879861	0	0	3.167500e+01
307.178558	1.279577	mountain	3	0	0.000000	1.589046	1	0	0	0	CorrectOmission	1.942172	0.885732	0	0	3.275000e+01
308.458130	1.279583	city	7	1	1.509813	1.509813	0	1	0	0	CorrectCommission	1.564546	0.885865	0	0	3.382500e+01
309.737701	1.279583	city	10	1	1.085212	1.085212	0	1	0	0	CorrectCommission	0.459117	0.880584	0	0	3.490000e+01
311.017303	1.279575	city	5	1	1.070780	1.070780	0	1	0	0	CorrectCommission	0.527900	0.870906	0	0	3.597500e+01
312.296875	1.279578	city	8	1	0.908274	0.908274	0	1	0	0	CorrectCommission	1.302412	0.858431	0	0	3.705000e+01
313.576477	1.279611	city	1	1	0.869467	0.869467	0	1	0	0	CorrectCommission	1.487365	0.845138	0	0	3.812500e+01
314.855988	1.279414	city	3	1	1.088030	1.088030	0	1	0	0	CorrectCommission	0.445687	0.833087	0	0	3.920000e+01
316.135529	1.279718	city	5	1	1.129674	1.129674	0	1	0	0	CorrectCommission	0.247212	0.824107	0	0	4.027500e+01
317.415161	1.279520	city	4	1	1.304824	1.304824	0	1	0	0	CorrectCommission	0.587563	0.819394	0	0	4.135000e+01
318.694733	1.279656	mountain	6	0	0.000000	1.279264	1	0	0	0	CorrectOmission	0.465742	0.819280	0	0	4.242500e+01
319.974274	1.279421	city	8	1	1.124169	1.124169	0	1	0	0	CorrectCommission	0.273449	0.823140	0	0	4.350000e+01
321.253876	1.279783	city	5	1	0.910713	0.910713	0	1	0	0	CorrectCommission	1.290785	0.829417	0	0	4.457500e+01
322.533539	1.279535	city	2	1	1.138541	1.138541	0	1	0	0	CorrectCommission	0.204951	0.835887	0	0	4.565000e+01
323.813110	1.279578	city	10	1	1.175461	1.175461	0	1	0	0	CorrectCommission	0.028988	0.840036	0	0	4.672500e+01
325.092682	1.279559	city	3	1	1.710634	1.710634	0	1	0	0	CorrectCommission	2.521668	0.839550	0	0	4.780000e+01
326.372162	1.279430	city	4	1	1.549571	1.549571	0	1	0	0	CorrectCommission	1.754034	0.832659	0	0	4.887500e+01
327.651733	1.279726	city	6	1	0.911057	0.911057	0	1	0	0	CorrectCommission	1.289144	0.818651	0	0	4.995000e+01
328.931396	1.279594	city	3	1	0.911544	0.911544	0	1	0	0	CorrectCommission	1.286825	0.798005	0	0	5.102500e+01
330.210938	1.279453	city	2	1	1.103759	1.103759	0	1	0	0	CorrectCommission	0.370722	0.772319	0	0	5.210000e+01
331.490509	1.279715	city	10	1	1.071575	1.071575	0	1	0	0	CorrectCommission	0.524113	0.744198	0	0	5.317500e+01
332.770142	1.279574	city	2	1	1.230285	1.230285	0	1	0	0	CorrectCommission	0.232304	0.716805	0	0	5.425000e+01
334.049744	1.279591	city	3	1	1.177850	1.177850	0	1	0	0	CorrectCommission	0.017602	0.693467	1	0	5.532500e+01
335.329315	1.279545	city	10	1	1.284087	1.284087	0	1	0	0	CorrectCommission	0.488726	0.677231	1	0	5.640000e+01
336.608826	1.279507	city	4	1	1.443882	1.443882	0	1	0	0	CorrectCommission	1.250316	0.670441	1	0	5.747500e+01
337.888428	1.279669	city	8	1	1.087623	1.087623	0	1	0	0	CorrectCommission	0.447625	0.674467	1	0	5.855000e+01
339.168060	1.279588	city	9	1	1.263897	1.263897	0	1	0	0	CorrectCommission	0.392501	0.689545	1	0	5.962500e+01
340.447571	1.279467	city	5	1	1.070845	1.070845	0	1	0	0	CorrectCommission	0.527589	0.714637	0	0	6.070000e+01
341.727112	1.279593	city	3	1	1.139730	1.139730	0	1	0	0	CorrectCommission	0.199285	0.747518	0	0	6.177500e+01
343.006744	1.279653	city	2	1	1.177313	1.177313	0	1	0	0	CorrectCommission	0.020163	0.785020	0	0	6.285000e+01
344.286346	1.279581	city	4	1	1.070959	1.070959	0	1	0	0	CorrectCommission	0.527046	0.823309	0	0	6.392500e+01
348.098419	6.344575	break	0	1	0.962563	0.962563	0	0	0	0	ThoughtProbe	1.043665	0.858322	0	65	65
351.910492	1.279573	city	5	1	1.716447	1.716447	0	1	0	0	CorrectCommission	2.549370	0.886252	0	0	6.386957e+01
353.190094	1.279587	city	9	1	1.070518	1.070518	0	1	0	0	CorrectCommission	0.529152	0.903999	0	0	6.273913e+01
354.469666	1.279602	city	8	1	1.710546	1.710546	0	1	0	0	CorrectCommission	2.521247	0.909590	0	0	6.160870e+01
355.749237	1.279536	city	4	1	1.444686	1.444686	0	1	0	0	CorrectCommission	1.254147	0.902275	0	0	6.047826e+01
357.028748	1.279498	city	2	1	1.074820	1.074820	0	1	0	0	CorrectCommission	0.508647	0.882665	0	0	5.934783e+01
358.308319	1.279598	city	6	1	0.916119	0.916119	0	1	0	0	CorrectCommission	1.265020	0.852428	0	0	5.821739e+01
359.587921	1.279658	mountain	10	0	0.000000	1.166938	1	0	0	0	CorrectOmission	0.069610	0.814041	0	0	5.708696e+01
360.867554	1.279580	city	6	1	1.358259	1.358259	0	1	0	0	CorrectCommission	0.842235	0.770452	0	0	5.595652e+01
362.147125	1.279583	city	3	1	1.021067	1.021067	0	1	0	0	CorrectCommission	0.764834	0.724622	0	0	5.482609e+01
363.426727	1.279595	city	2	1	1.132696	1.132696	0	1	0	0	CorrectCommission	0.232806	0.679299	1	0	5.369565e+01
364.706299	1.279563	city	6	1	0.967042	0.967042	0	1	0	0	CorrectCommission	1.022321	0.636773	1	0	5.256522e+01
365.985870	1.279581	city	2	1	1.231235	1.231235	0	1	0	0	CorrectCommission	0.236834	0.598774	1	0	5.143478e+01
367.265472	1.279597	city	8	1	1.143231	1.143231	0	1	0	0	CorrectCommission	0.182598	0.566500	1	0	5.030435e+01
368.545044	1.279580	mountain	1	1	1.022972	1.022972	0	0	1	0	CommissionError	0.755753	0.540664	1	0	4.917391e+01
369.824646	1.279610	city	3	1	1.284110	1.284110	0	1	0	0	CorrectCommission	0.488836	0.521565	1	0	4.804348e+01
371.104218	1.279551	city	6	1	1.148474	1.148474	0	1	0	0	CorrectCommission	0.157611	0.509241	1	0	4.691304e+01
372.383789	1.279549	city	9	1	0.976280	0.976280	0	1	0	0	CorrectCommission	0.978290	0.503533	1	0	4.578261e+01
373.663361	1.279600	city	7	1	1.124185	1.124185	0	1	0	0	CorrectCommission	0.273369	0.504067	1	0	4.465217e+01
374.942932	1.279558	city	1	1	1.070711	1.070711	0	1	0	0	CorrectCommission	0.528229	0.510328	1	0	4.352174e+01
376.222504	1.279581	city	4	1	1.230825	1.230825	0	1	0	0	CorrectCommission	0.234878	0.521595	1	0	4.239130e+01
377.502045	1.279523	mountain	10	0	0.000000	1.168754	1	0	0	0	CorrectOmission	0.060953	0.536975	1	0	4.126087e+01
378.781616	1.279629	city	10	1	1.124348	1.124348	0	1	0	0	CorrectCommission	0.272595	0.555373	1	0	4.013043e+01
380.061157	1.279448	city	8	1	1.337454	1.337454	0	1	0	0	CorrectCommission	0.743079	0.575574	1	0	39
381.340759	1.279749	city	10	1	0.965011	0.965011	0	1	0	0	CorrectCommission	1.032001	0.596434	1	0	3.786957e+01
382.620422	1.279551	mountain	2	0	0.000000	1.222498	1	0	0	0	CorrectOmission	0.195191	0.616955	1	0	3.673913e+01
383.899994	1.279578	city	6	1	1.444150	1.444150	0	1	0	0	CorrectCommission	1.251591	0.636494	1	0	3.560870e+01
385.179565	1.279601	city	8	1	0.964201	0.964201	0	1	0	0	CorrectCommission	1.035860	0.654779	1	0	3.447826e+01
386.459137	1.279553	city	1	1	1.017234	1.017234	0	1	0	0	CorrectCommission	0.783102	0.671946	1	0	3.334783e+01
387.738708	1.279574	city	8	1	1.022939	1.022939	0	1	0	0	CorrectCommission	0.755912	0.688480	1	0	3.221739e+01
389.018280	1.279584	city	7	1	1.231501	1.231501	0	1	0	0	CorrectCommission	0.238102	0.704989	1	0	3.108696e+01
390.297882	1.279580	city	8	1	1.341929	1.341929	0	1	0	0	CorrectCommission	0.764404	0.722028	0	0	2.995652e+01
391.577454	1.279579	city	4	1	1.177390	1.177390	0	1	0	0	CorrectCommission	0.019794	0.739882	0	0	2.882609e+01
392.857056	1.279602	city	6	1	0.992026	0.992026	0	1	0	0	CorrectCommission	0.903243	0.758419	0	0	2.769565e+01
394.136627	1.279552	city	5	1	1.014983	1.014983	0	1	0	0	CorrectCommission	0.793831	0.777012	0	0	2.656522e+01
395.416107	1.279446	city	7	1	1.071871	1.071871	0	1	0	0	CorrectCommission	0.522703	0.794602	0	0	2.543478e+01
396.695709	1.279747	city	8	1	0.911208	0.911208	0	1	0	0	CorrectCommission	1.288429	0.809818	0	0	2.430435e+01
397.975311	1.279470	city	9	1	1.023043	1.023043	0	1	0	0	CorrectCommission	0.755416	0.821183	0	0	2.317391e+01
399.254822	1.279523	city	10	1	1.017719	1.017719	0	1	0	0	CorrectCommission	0.780791	0.827374	0	0	2.204348e+01
400.534454	1.279737	city	9	1	0.911239	0.911239	0	1	0	0	CorrectCommission	1.288280	0.827386	0	0	2.091304e+01
401.814117	1.279573	city	1	1	0.695548	0.695548	0	1	0	0	CorrectCommission	2.316272	0.820711	0	0	1.978261e+01
403.093689	1.279584	city	8	1	1.234716	1.234716	0	1	0	0	CorrectCommission	0.253424	0.807354	0	0	1.865217e+01
404.373260	1.279576	city	9	1	1.192514	1.192514	0	1	0	0	CorrectCommission	0.052287	0.787897	0	0	1.752174e+01
405.652832	1.279587	city	6	1	1.027477	1.027477	0	1	0	0	CorrectCommission	0.734284	0.763280	0	0	1.639130e+01
406.932404	1.279539	city	9	1	0.968844	0.968844	0	1	0	0	CorrectCommission	1.013732	0.734699	0	0	1.526087e+01
408.211975	1.279596	city	8	1	0.972219	0.972219	0	1	0	0	CorrectCommission	0.997648	0.703453	1	0	1.413043e+01
412.390533	7.077512	break	0	0	0.000000	1.062865	0	0	0	0	ThoughtProbe	0.565626	0.670811	1	13	13
416.589081	1.319584	city	2	1	1.115255	1.115255	0	1	0	0	CorrectCommission	0.315929	0.637946	1	0	1.358824e+01
417.922058	1.346392	city	10	1	1.003865	1.003865	0	1	0	0	CorrectCommission	0.846821	0.605813	1	0	1.417647e+01
419.235046	1.279562	city	2	1	1.294277	1.294277	0	1	0	0	CorrectCommission	0.537296	0.575197	1	0	1.476471e+01
420.534607	1.319569	city	3	1	1.231337	1.231337	0	1	0	0	CorrectCommission	0.237321	0.546707	1	0	1.535294e+01
421.840851	1.292891	city	1	1	1.061655	1.061655	0	1	0	0	CorrectCommission	0.571390	0.520816	1	0	1.594118e+01
423.133728	1.292912	mountain	5	0	0.000000	1.238103	1	0	0	0	CorrectOmission	0.269564	0.497916	1	0	1.652941e+01
424.426666	1.292915	city	7	1	1.384346	1.384346	0	1	0	0	CorrectCommission	0.966567	0.478388	1	0	1.711765e+01
425.732880	1.319554	city	6	1	1.124053	1.124053	0	1	0	0	CorrectCommission	0.274000	0.462640	1	0	1.770588e+01
427.039124	1.292914	city	7	1	1.247887	1.247887	0	1	0	0	CorrectCommission	0.316199	0.451120	1	0	1.829412e+01
428.325287	1.279424	city	2	1	1.300271	1.300271	0	1	0	0	CorrectCommission	0.565861	0.444300	1	0	1.888235e+01
429.618195	1.306399	city	6	1	1.180129	1.180129	0	1	0	0	CorrectCommission	0.006738	0.442666	1	0	1.947059e+01
430.917786	1.292783	city	5	1	1.161448	1.161448	0	1	0	0	CorrectCommission	0.095772	0.446640	1	0	2.005882e+01
432.210632	1.292876	city	7	1	1.332942	1.332942	0	1	0	0	CorrectCommission	0.721571	0.456511	1	0	2.064706e+01
433.510162	1.306231	city	10	1	1.096542	1.096542	0	1	0	0	CorrectCommission	0.405116	0.472336	1	0	2.123529e+01
434.809814	1.293032	city	9	1	1.347779	1.347779	0	1	0	0	CorrectCommission	0.792288	0.493890	1	0	2.182353e+01
436.122803	1.332945	city	10	1	1.196298	1.196298	0	1	0	0	CorrectCommission	0.070323	0.520542	1	0	2.241176e+01
437.468994	1.359459	city	5	1	1.300274	1.300274	0	1	0	0	CorrectCommission	0.565876	0.551288	1	0	23
438.801880	1.306306	city	10	1	1.234309	1.234309	0	1	0	0	CorrectCommission	0.251482	0.584673	1	0	2.358824e+01
440.108154	1.306265	city	6	1	1.152949	1.152949	0	1	0	0	CorrectCommission	0.136278	0.618893	1	0	2.417647e+01
441.434418	1.346209	city	5	1	1.016660	1.016660	0	1	0	0	CorrectCommission	0.785840	0.651929	1	0	2.476471e+01
442.760651	1.306266	city	6	1	1.138552	1.138552	0	1	0	0	CorrectCommission	0.204897	0.681742	1	0	2.535294e+01
444.080170	1.332763	city	5	1	1.667245	1.667245	0	1	0	0	CorrectCommission	2.314872	0.706556	1	0	2.594118e+01
445.399628	1.306168	mountain	6	0	0.000000	1.441063	1	0	0	0	CorrectOmission	1.236880	0.725060	0	0	2.652941e+01
446.705902	1.306388	city	8	1	1.062499	1.062499	0	1	0	0	CorrectCommission	0.567368	0.736713	0	0	2.711765e+01
448.018890	1.319579	city	2	1	1.134047	1.134047	0	1	0	0	CorrectCommission	0.226369	0.741853	0	0	2.770588e+01
449.331787	1.306234	city	3	1	0.954845	0.954845	0	1	0	0	CorrectCommission	1.080452	0.741776	0	0	2.829412e+01
450.631378	1.292923	city	2	1	1.501459	1.501459	0	1	0	0	CorrectCommission	1.524728	0.738682	0	0	2.888235e+01
451.950836	1.346045	city	1	1	1.077752	1.077752	0	1	0	0	CorrectCommission	0.494672	0.735611	0	0	2.947059e+01
453.283722	1.319717	city	7	1	1.159259	1.159259	0	1	0	0	CorrectCommission	0.106206	0.736219	0	0	3.005882e+01
454.590057	1.292941	city	4	1	1.001566	1.001566	0	1	0	0	CorrectCommission	0.857778	0.744447	0	0	3.064706e+01
455.896301	1.319559	city	7	1	1.106761	1.106761	0	1	0	0	CorrectCommission	0.356415	0.764164	0	0	3.123529e+01
457.202484	1.292798	city	2	1	1.049935	1.049935	0	1	0	0	CorrectCommission	0.627251	0.798749	0	0	3.182353e+01
458.508728	1.319663	city	6	1	1.087034	1.087034	0	1	0	0	CorrectCommission	0.450435	0.850661	0	0	3.241176e+01
459.168549	13.622200	break	0	0	0.000000	1.054177	0	0	0	0	ThoughtProbe	0.607033	0.920949	0	33	33
473.450500	1.319517	city	10	1	1.006068	1.006068	0	1	0	0	CorrectCommission	0.836323	1.008904	0	0	3.435000e+01
474.764404	1.308284	city	1	1	0.997411	0.997411	0	1	0	0	CorrectCommission	0.877581	1.111835	0	0	3.570000e+01
476.077332	1.317576	city	4	1	1.136768	1.136768	0	1	0	0	CorrectCommission	0.213398	1.225017	0	0	3.705000e+01
477.389221	1.306210	city	3	1	1.108333	1.108333	0	1	0	0	CorrectCommission	0.348924	1.341934	0	0	3.840000e+01
478.708710	1.332762	mountain	8	1	0.979419	0.979419	0	0	1	0	CommissionError	0.963328	1.454758	0	0	3.975000e+01
480.021576	1.292921	city	7	1	1.564128	1.564128	0	1	0	0	CorrectCommission	1.823415	1.555151	0	0	4.110000e+01
481.321136	1.306225	city	4	1	1.666816	1.666816	0	1	0	0	CorrectCommission	2.312827	1.635208	0	0	4.245000e+01
482.640747	1.333028	city	1	1	1.999267	1.999267	0	1	0	0	CorrectCommission	3.897303	1.688463	0	0	4.380000e+01
483.947083	1.279602	city	9	1	2.017793	2.017793	0	1	0	0	CorrectCommission	3.985597	1.710705	0	0	4.515000e+01
485.233307	1.292887	city	6	1	1.874637	1.874637	0	1	0	0	CorrectCommission	3.303310	1.700515	0	0	4.650000e+01
486.539551	1.319568	mountain	3	0	0.000000	1.634402	1	0	0	0	CorrectOmission	2.158340	1.659418	0	0	4.785000e+01
487.839142	1.279595	city	5	1	1.433441	1.433441	0	1	0	0	CorrectCommission	1.200554	1.591548	0	0	4.920000e+01
489.125397	1.292912	city	4	1	1.408109	1.408109	0	1	0	0	CorrectCommission	1.079820	1.502942	0	0	5.055000e+01
490.418213	1.292734	city	9	1	0.994107	0.994107	0	1	0	0	CorrectCommission	0.893328	1.400648	0	0	5.190000e+01
491.717773	1.306380	city	4	1	1.178233	1.178233	0	1	0	0	CorrectCommission	0.015776	1.291796	0	0	5.325000e+01
493.010742	1.279608	city	5	1	0.981372	0.981372	0	1	0	0	CorrectCommission	0.954024	1.182848	0	0	5.460000e+01
494.350311	1.399516	city	3	1	1.036422	1.036422	0	1	0	0	CorrectCommission	0.691651	1.079007	0	0	5.595000e+01
495.723175	1.346226	city	7	1	1.693483	1.693483	0	1	0	0	CorrectCommission	2.439922	0.984013	0	0	5.730000e+01
497.062775	1.332913	city	1	1	1.183710	1.183710	0	1	0	0	CorrectCommission	0.010325	0.900082	0	0	5.865000e+01
498.402252	1.346074	city	4	1	1.280551	1.280551	0	1	0	0	CorrectCommission	0.471875	0.828226	0	0	60
499.741791	1.333023	city	8	1	0.999368	0.999368	0	1	0	0	CorrectCommission	0.868253	0.768413	0	0	6.135000e+01
501.068115	1.319587	city	10	1	0.998300	0.998300	0	1	0	0	CorrectCommission	0.873342	0.719932	0	0	6.270000e+01
502.387604	1.319399	city	4	1	1.220907	1.220907	0	1	0	0	CorrectCommission	0.187609	0.681668	1	0	6.405000e+01
503.707092	1.319569	city	1	1	1.154861	1.154861	0	1	0	0	CorrectCommission	0.127168	0.652279	1	0	6.540000e+01
505.006775	1.279823	mountain	4	0	0.000000	1.044586	1	0	0	0	CorrectOmission	0.652742	0.630337	1	0	6.675000e+01
506.299774	1.306160	city	8	1	1.084623	1.084623	0	1	0	0	CorrectCommission	0.461925	0.614332	1	0	6.810000e+01
507.599274	1.292830	city	4	1	1.469512	1.469512	0	1	0	0	CorrectCommission	1.372470	0.602693	1	0	6.945000e+01
508.885437	1.279489	city	1	1	1.305624	1.305624	0	1	0	0	CorrectCommission	0.591376	0.593680	1	0	7.080000e+01
510.184967	1.319573	city	9	1	1.237093	1.237093	0	1	0	0	CorrectCommission	0.264753	0.585433	1	0	7.215000e+01
511.517914	1.346362	city	2	1	1.120486	1.120486	0	1	0	0	CorrectCommission	0.291001	0.575845	1	0	7.350000e+01
512.844177	1.306089	city	10	1	1.068733	1.068733	0	1	0	0	CorrectCommission	0.537655	0.562635	1	0	7.485000e+01
514.137085	1.279728	city	9	1	1.156818	1.156818	0	1	0	0	CorrectCommission	0.117842	0.543448	1	0	7.620000e+01
515.430054	1.306244	city	7	1	1.441746	1.441746	0	1	0	0	CorrectCommission	1.240137	0.516053	1	0	7.755000e+01
516.816223	1.466095	city	10	1	1.351285	1.351285	0	1	0	0	CorrectCommission	0.808998	0.478529	1	0	7.890000e+01
518.189026	1.279518	city	4	1	1.329467	1.329467	0	1	0	0	CorrectCommission	0.705010	0.429606	1	0	8.025000e+01
519.495300	1.333038	city	8	1	1.063057	1.063057	0	1	0	0	CorrectCommission	0.564708	0.368843	1	0	8.160000e+01
520.808289	1.292910	city	9	1	1.460543	1.460543	0	1	0	0	CorrectCommission	1.329721	0.296835	1	0	8.295000e+01
522.141174	1.372883	city	8	1	1.135104	1.135104	0	1	0	0	CorrectCommission	0.221331	0.215194	1	0	8.430000e+01
523.507385	1.359551	city	9	1	1.154741	1.154741	0	1	0	0	CorrectCommission	0.127740	0.126534	1	0	8.565000e+01
527.099548	5.824779	break	0	0	0.000000	1.174378	0	0	0	0	ThoughtProbe	0.034148	0.034148	1	87	87
