onset	duration	trial_type	image_type	Press	ReactionTime	ReactionTime_Interpolated	CorrectOmission	CorrectCommission	CommissionError	OmissionError	response_type	nonsmoothVarianceTimeCourse	VarianceTimeCourse	In_the_Zone	ThoughtProbe	ThoughtProbe_Interpolated
0.652918	1.279563	city	4	1	1.553461	1.553461	0	1	0	0	CorrectCommission	1.363790	1.363790	0	0	71
1.939164	1.292929	city	8	1	1.361605	1.361605	0	1	0	0	CorrectCommission	0.305773	1.191296	0	0	71
3.232016	1.292776	city	2	1	1.317111	1.317111	0	1	0	0	CorrectCommission	0.060403	1.025030	0	0	71
4.518248	1.279687	city	3	1	1.335233	1.335233	0	1	0	0	CorrectCommission	0.160343	0.870619	0	0	71
5.804557	1.292931	city	8	1	1.303389	1.303389	0	1	0	0	CorrectCommission	0.015265	0.732643	1	0	71
7.097388	1.292730	city	5	1	1.262603	1.262603	0	1	0	0	CorrectCommission	0.240183	0.614324	1	0	71
8.383622	1.279739	city	7	1	1.300451	1.300451	0	1	0	0	CorrectCommission	0.031470	0.517443	1	0	71
9.663291	1.279599	city	3	1	1.234415	1.234415	0	1	0	0	CorrectCommission	0.395634	0.442474	1	0	71
10.942786	1.279392	city	5	1	1.390932	1.390932	0	1	0	0	CorrectCommission	0.467501	0.388802	1	0	71
12.222325	1.279685	city	7	1	1.402347	1.402347	0	1	0	0	CorrectCommission	0.530452	0.355035	1	0	71
13.501986	1.279636	city	5	1	1.320738	1.320738	0	1	0	0	CorrectCommission	0.080409	0.339284	1	0	71
14.788260	1.292912	mountain	10	0	0.000000	1.302568	1	0	0	0	CorrectOmission	0.019796	0.339404	1	0	71
16.074505	1.279580	city	6	1	1.295183	1.295183	0	1	0	0	CorrectCommission	0.060521	0.353090	1	0	71
17.354086	1.279580	city	4	1	1.245931	1.245931	0	1	0	0	CorrectCommission	0.332125	0.377944	1	0	71
18.633663	1.279577	mountain	3	0	0.000000	1.292516	1	0	0	0	CorrectOmission	0.075224	0.411471	1	0	71
19.913242	1.279578	city	7	1	1.343548	1.343548	0	1	0	0	CorrectCommission	0.206194	0.451089	1	0	71
21.192751	1.279441	mountain	5	0	0.000000	1.307634	1	0	0	0	CorrectOmission	0.008144	0.494127	1	0	71
22.472336	1.279728	city	1	1	1.355662	1.355662	0	1	0	0	CorrectCommission	0.272999	0.537933	1	0	71
23.751982	1.279566	city	7	1	1.658517	1.658517	0	1	0	0	CorrectCommission	1.943132	0.579961	1	0	71
25.031567	1.279602	city	3	1	1.177807	1.177807	0	1	0	0	CorrectCommission	0.707805	0.617891	1	0	71
26.311081	1.279427	city	8	1	1.075227	1.075227	0	1	0	0	CorrectCommission	1.273495	0.649826	1	0	71
27.590652	1.279717	city	3	1	1.181117	1.181117	0	1	0	0	CorrectCommission	0.689552	0.674294	1	0	71
28.890251	1.319479	city	5	1	1.167079	1.167079	0	1	0	0	CorrectCommission	0.766968	0.690340	1	0	71
30.196405	1.292828	city	4	1	1.295652	1.295652	0	1	0	0	CorrectCommission	0.057933	0.697500	1	0	71
31.482698	1.279760	city	10	1	1.196707	1.196707	0	1	0	0	CorrectCommission	0.603577	0.695797	1	0	71
32.762360	1.279560	city	4	1	1.441713	1.441713	0	1	0	0	CorrectCommission	0.747538	0.685690	1	0	71
34.041935	1.279594	city	6	1	1.529756	1.529756	0	1	0	0	CorrectCommission	1.233066	0.668163	1	0	71
35.321526	1.279585	city	1	1	1.551812	1.551812	0	1	0	0	CorrectCommission	1.354693	0.644734	1	0	71
36.601013	1.279392	city	2	1	1.452884	1.452884	0	1	0	0	CorrectCommission	0.809144	0.617455	1	0	71
37.880581	1.279739	city	9	1	1.369494	1.369494	0	1	0	0	CorrectCommission	0.349278	0.588898	1	0	71
39.180233	1.319567	city	1	1	1.170535	1.170535	0	1	0	0	CorrectCommission	0.747907	0.562072	1	0	71
40.493114	1.306196	city	5	1	1.273702	1.273702	0	1	0	0	CorrectCommission	0.178977	0.540236	1	0	71
41.786034	1.279642	city	6	1	1.301684	1.301684	0	1	0	0	CorrectCommission	0.024670	0.526693	1	0	71
43.065563	1.279420	city	7	1	1.253326	1.253326	0	1	0	0	CorrectCommission	0.291345	0.524453	1	0	71
44.345104	1.279662	city	3	1	1.236644	1.236644	0	1	0	0	CorrectCommission	0.383341	0.535929	1	0	71
45.638096	1.306317	city	9	1	1.292131	1.292131	0	1	0	0	CorrectCommission	0.077349	0.562619	1	0	71
46.930981	1.279455	mountain	3	0	0.000000	1.366338	1	0	0	0	CorrectOmission	0.331876	0.604830	1	0	71
48.210548	1.279683	city	7	1	1.375172	1.375172	0	1	0	0	CorrectCommission	0.380588	0.661503	1	0	71
49.543465	1.386143	city	8	1	1.234537	1.234537	0	1	0	0	CorrectCommission	0.394960	0.730163	1	0	71
50.876301	1.279533	city	7	1	1.245641	1.245641	0	1	0	0	CorrectCommission	0.333724	0.806994	0	0	71
52.162495	1.292855	city	10	1	1.136508	1.136508	0	1	0	0	CorrectCommission	0.935553	0.887078	0	0	71
53.462082	1.306318	city	1	1	1.483634	1.483634	0	1	0	0	CorrectCommission	0.978715	0.964815	0	0	71
54.761658	1.292833	city	2	1	1.580910	1.580910	0	1	0	0	CorrectCommission	1.515157	1.034452	0	0	71
56.061203	1.306259	city	9	1	1.486197	1.486197	0	1	0	0	CorrectCommission	0.992852	1.090714	0	0	71
57.354187	1.279709	city	6	1	1.396978	1.396978	0	1	0	0	CorrectCommission	0.500841	1.129446	0	0	71
57.994041	10.076522	break	0	0	0.000000	1.766864	0	0	0	0	ThoughtProbe	2.540625	1.148160	0	71	71
68.710449	1.279763	city	4	1	2.060650	2.060650	0	1	0	0	CorrectCommission	4.160749	1.146304	0	0	7.058824e+01
69.996704	1.292752	city	7	1	1.743132	1.743132	0	1	0	0	CorrectCommission	2.409756	1.125372	0	0	7.017647e+01
71.289619	1.293079	city	3	1	1.402427	1.402427	0	1	0	0	CorrectCommission	0.530893	1.088720	0	0	6.976471e+01
72.582520	1.292718	city	2	1	1.326099	1.326099	0	1	0	0	CorrectCommission	0.109969	1.040983	0	0	6.935294e+01
73.875397	1.293047	mountain	9	0	0.000000	1.319040	1	0	0	0	CorrectOmission	0.071042	0.987383	0	0	6.894118e+01
75.174988	1.306130	city	5	1	1.328856	1.328856	0	1	0	0	CorrectCommission	0.125173	0.932971	0	0	6.852941e+01
76.467857	1.279610	city	1	1	1.303151	1.303151	0	1	0	0	CorrectCommission	0.016577	0.882018	0	0	6.811765e+01
77.754166	1.293007	city	8	1	1.101809	1.101809	0	1	0	0	CorrectCommission	1.126904	0.837572	0	0	6.770588e+01
79.053787	1.306233	city	5	1	1.594354	1.594354	0	1	0	0	CorrectCommission	1.589297	0.801262	0	0	6.729412e+01
80.359955	1.306098	city	10	1	1.263386	1.263386	0	1	0	0	CorrectCommission	0.235870	0.773392	0	0	6.688235e+01
81.652863	1.279718	city	7	1	1.429531	1.429531	0	1	0	0	CorrectCommission	0.680362	0.753223	0	0	6.647059e+01
82.939171	1.292904	city	5	1	1.148260	1.148260	0	1	0	0	CorrectCommission	0.870746	0.739275	1	0	6.605882e+01
84.232094	1.292934	city	7	1	1.379219	1.379219	0	1	0	0	CorrectCommission	0.402906	0.729752	1	0	6.564706e+01
85.531677	1.306232	city	10	1	1.094965	1.094965	0	1	0	0	CorrectCommission	1.164647	0.722876	1	0	6.523529e+01
86.824577	1.279580	city	1	1	1.142145	1.142145	0	1	0	0	CorrectCommission	0.904468	0.717132	1	0	6.482353e+01
88.117485	1.306225	city	5	1	1.212872	1.212872	0	1	0	0	CorrectCommission	0.514436	0.711470	1	0	6.441176e+01
89.436958	1.332719	city	6	1	1.215288	1.215288	0	1	0	0	CorrectCommission	0.501112	0.705313	1	0	64
90.769852	1.333068	city	1	1	1.183078	1.183078	0	1	0	0	CorrectCommission	0.678739	0.698607	1	0	6.358824e+01
92.102760	1.332757	city	5	1	1.108105	1.108105	0	1	0	0	CorrectCommission	1.092185	0.691683	1	0	6.317647e+01
93.415657	1.293037	city	2	1	1.088288	1.088288	0	1	0	0	CorrectCommission	1.201468	0.685217	1	0	6.276471e+01
94.708649	1.292951	city	4	1	1.251091	1.251091	0	1	0	0	CorrectCommission	0.303670	0.680087	1	0	6.235294e+01
96.008232	1.306207	city	3	1	1.269447	1.269447	0	1	0	0	CorrectCommission	0.202445	0.677240	1	0	6.194118e+01
97.301048	1.279424	city	9	1	1.309935	1.309935	0	1	0	0	CorrectCommission	0.020832	0.677585	1	0	6.152941e+01
98.587280	1.293048	city	5	1	1.048447	1.048447	0	1	0	0	CorrectCommission	1.421176	0.681951	1	0	6.111765e+01
99.880272	1.292927	mountain	2	0	0.000000	1.294474	1	0	0	0	CorrectOmission	0.064431	0.690998	1	0	6.070588e+01
101.166512	1.279565	city	8	1	1.516665	1.516665	0	1	0	0	CorrectCommission	1.160870	0.705228	1	0	6.029412e+01
102.446091	1.279587	city	10	1	1.183671	1.183671	0	1	0	0	CorrectCommission	0.675469	0.724837	1	0	5.988235e+01
103.732338	1.292900	city	6	1	1.462057	1.462057	0	1	0	0	CorrectCommission	0.859728	0.749720	0	0	5.947059e+01
105.025154	1.292746	city	2	1	1.152665	1.152665	0	1	0	0	CorrectCommission	0.846452	0.779375	0	0	5.905882e+01
106.318077	1.293099	city	3	1	1.382655	1.382655	0	1	0	0	CorrectCommission	0.421858	0.812845	0	0	5.864706e+01
107.624329	1.319395	city	4	1	1.295625	1.295625	0	1	0	0	CorrectCommission	0.058083	0.848659	0	0	5.823529e+01
108.923889	1.279737	city	2	1	1.437004	1.437004	0	1	0	0	CorrectCommission	0.721569	0.884938	0	0	5.782353e+01
110.223541	1.319552	city	4	1	1.403595	1.403595	0	1	0	0	CorrectCommission	0.537334	0.919456	0	0	5.741176e+01
110.883316	8.916909	break	0	0	0.000000	1.596943	0	0	0	0	ThoughtProbe	1.603578	0.949913	0	57	57
120.440102	1.279761	city	9	1	1.710514	1.710514	0	1	0	0	CorrectCommission	2.229878	0.974151	0	0	5.671739e+01
121.719696	1.279419	city	1	1	1.437774	1.437774	0	1	0	0	CorrectCommission	0.725815	0.990434	0	0	5.643478e+01
123.025917	1.333027	city	6	1	1.636300	1.636300	0	1	0	0	CorrectCommission	1.820612	0.997712	0	0	5.615217e+01
124.352165	1.319477	city	4	1	1.226883	1.226883	0	1	0	0	CorrectCommission	0.437171	0.995669	0	0	5.586957e+01
125.651741	1.279669	city	1	1	1.018565	1.018565	0	1	0	0	CorrectCommission	1.585962	0.984798	0	0	5.558696e+01
126.938026	1.292906	city	5	1	1.103382	1.103382	0	1	0	0	CorrectCommission	1.118232	0.966197	0	0	5.530435e+01
128.230850	1.292748	city	4	1	1.275870	1.275870	0	1	0	0	CorrectCommission	0.167025	0.941492	0	0	5.502174e+01
129.523773	1.293095	city	6	1	1.062517	1.062517	0	1	0	0	CorrectCommission	1.343586	0.912584	0	0	5.473913e+01
130.830109	1.319561	city	3	1	1.120697	1.120697	0	1	0	0	CorrectCommission	1.022746	0.881380	0	0	5.445652e+01
132.129669	1.279558	city	10	1	1.127050	1.127050	0	1	0	0	CorrectCommission	0.987712	0.849664	0	0	5.417391e+01
133.415863	1.292846	city	6	1	1.365348	1.365348	0	1	0	0	CorrectCommission	0.326417	0.818945	0	0	5.389130e+01
134.728760	1.332952	city	4	1	1.196757	1.196757	0	1	0	0	CorrectCommission	0.603304	0.790338	0	0	5.360870e+01
136.041702	1.292918	mountain	9	0	0.000000	1.277898	1	0	0	0	CorrectOmission	0.155838	0.764612	0	0	5.332609e+01
137.327957	1.279583	city	10	1	1.470855	1.470855	0	1	0	0	CorrectCommission	0.908246	0.742206	1	0	5.304348e+01
138.634201	1.332905	city	2	1	1.637709	1.637709	0	1	0	0	CorrectCommission	1.828382	0.723300	1	0	5.276087e+01
139.940430	1.279560	city	1	1	1.328946	1.328946	0	1	0	0	CorrectCommission	0.125673	0.707896	1	0	5.247826e+01
141.239929	1.319434	mountain	9	0	0.000000	1.178950	1	0	0	0	CorrectOmission	0.701499	0.695943	1	0	5.219565e+01
142.552826	1.306373	city	5	1	1.224590	1.224590	0	1	0	0	CorrectCommission	0.449812	0.687274	1	0	5.191304e+01
143.852402	1.292766	city	4	1	1.502735	1.502735	0	1	0	0	CorrectCommission	1.084054	0.681650	1	0	5.163043e+01
145.165222	1.332874	city	7	1	1.254219	1.254219	0	1	0	0	CorrectCommission	0.286418	0.678681	1	0	5.134783e+01
146.471542	1.279765	mountain	4	0	0.000000	1.314308	1	0	0	0	CorrectOmission	0.044948	0.677852	1	0	5.106522e+01
147.751190	1.279549	city	7	1	1.341413	1.341413	0	1	0	0	CorrectCommission	0.194422	0.678460	1	0	5.078261e+01
149.057419	1.332901	city	8	1	0.993946	0.993946	0	1	0	0	CorrectCommission	1.721728	0.679664	1	0	5.050000e+01
150.363586	1.279429	mountain	6	0	0.000000	1.091500	1	0	0	0	CorrectOmission	1.183757	0.680518	1	0	5.021739e+01
151.663177	1.319747	city	1	1	1.274595	1.274595	0	1	0	0	CorrectCommission	0.174053	0.680106	1	0	4.993478e+01
152.982849	1.319617	city	3	1	1.183755	1.183755	0	1	0	0	CorrectCommission	0.675004	0.677655	1	0	4.965217e+01
154.282410	1.279498	city	8	1	1.138984	1.138984	0	1	0	0	CorrectCommission	0.921899	0.672535	1	0	4.936957e+01
155.561951	1.279574	city	7	1	1.396884	1.396884	0	1	0	0	CorrectCommission	0.500326	0.664381	1	0	4.908696e+01
156.854858	1.306259	city	2	1	1.380307	1.380307	0	1	0	0	CorrectCommission	0.408910	0.653166	1	0	4.880435e+01
158.161026	1.306053	city	3	1	1.550803	1.550803	0	1	0	0	CorrectCommission	1.349130	0.639176	1	0	4.852174e+01
159.453857	1.279629	city	2	1	1.355494	1.355494	0	1	0	0	CorrectCommission	0.272075	0.622981	1	0	4.823913e+01
160.733521	1.279690	city	1	1	1.471112	1.471112	0	1	0	0	CorrectCommission	0.909665	0.605433	1	0	4.795652e+01
162.033112	1.319493	city	3	1	1.478982	1.478982	0	1	0	0	CorrectCommission	0.953066	0.587526	1	0	4.767391e+01
163.339340	1.292969	city	2	1	1.385488	1.385488	0	1	0	0	CorrectCommission	0.437481	0.570295	1	0	4.739130e+01
164.645630	1.319607	city	6	1	1.277154	1.277154	0	1	0	0	CorrectCommission	0.159941	0.554702	1	0	4.710870e+01
165.958466	1.306061	city	2	1	1.313387	1.313387	0	1	0	0	CorrectCommission	0.039868	0.541480	1	0	4.682609e+01
167.251358	1.279726	city	4	1	1.421611	1.421611	0	1	0	0	CorrectCommission	0.636686	0.531043	1	0	4.654348e+01
168.537674	1.292910	city	10	1	1.253099	1.253099	0	1	0	0	CorrectCommission	0.292594	0.523524	1	0	4.626087e+01
169.823929	1.279604	city	4	1	1.417819	1.417819	0	1	0	0	CorrectCommission	0.615775	0.518780	1	0	4.597826e+01
171.110092	1.292725	city	10	1	1.380186	1.380186	0	1	0	0	CorrectCommission	0.408243	0.516456	1	0	4.569565e+01
172.402924	1.292926	city	2	1	1.383589	1.383589	0	1	0	0	CorrectCommission	0.427005	0.516164	1	0	4.541304e+01
173.715820	1.332880	city	4	1	1.605163	1.605163	0	1	0	0	CorrectCommission	1.648906	0.517584	1	0	4.513043e+01
175.022125	1.279724	city	5	1	1.305867	1.305867	0	1	0	0	CorrectCommission	0.001603	0.520525	1	0	4.484783e+01
176.315094	1.306224	city	2	1	1.280176	1.280176	0	1	0	0	CorrectCommission	0.143279	0.525092	1	0	4.456522e+01
177.621262	1.306101	city	7	1	1.155263	1.155263	0	1	0	0	CorrectCommission	0.832126	0.531538	1	0	4.428261e+01
182.193100	7.837582	break	0	0	0.000000	1.199318	0	0	0	0	ThoughtProbe	0.589179	0.540271	1	44	44
186.751678	1.279575	city	5	0	0.000000	1.287713	0	0	0	1	OmissionError	0.101712	0.551801	1	0	4.370000e+01
188.064499	1.346064	city	3	1	1.295821	1.295821	0	1	0	0	CorrectCommission	0.057001	0.566616	1	0	4.340000e+01
189.390732	1.306396	city	1	1	1.099014	1.099014	0	1	0	0	CorrectCommission	1.142320	0.585051	1	0	4.310000e+01
190.683731	1.279585	mountain	2	0	0.000000	1.182043	1	0	0	0	CorrectOmission	0.684444	0.607221	1	0	4.280000e+01
191.963303	1.279572	city	1	1	1.359149	1.359149	0	1	0	0	CorrectCommission	0.292229	0.632972	1	0	4.250000e+01
193.242905	1.279624	city	7	1	1.444571	1.444571	0	1	0	0	CorrectCommission	0.763299	0.661794	1	0	4.220000e+01
194.529129	1.292830	city	1	1	1.178256	1.178256	0	1	0	0	CorrectCommission	0.705327	0.692810	1	0	4.190000e+01
195.815353	1.279619	mountain	9	0	0.000000	1.166057	1	0	0	0	CorrectOmission	0.772600	0.724790	1	0	4.160000e+01
197.114822	1.319333	city	10	1	1.259588	1.259588	0	1	0	0	CorrectCommission	0.256812	0.756195	0	0	4.130000e+01
198.414337	1.279672	city	7	1	1.310463	1.310463	0	1	0	0	CorrectCommission	0.023744	0.785287	0	0	41
199.713943	1.319539	city	10	1	0.996616	0.996616	0	1	0	0	CorrectCommission	1.707007	0.810284	0	0	4.070000e+01
201.040192	1.332957	city	8	1	0.995271	0.995271	0	1	0	0	CorrectCommission	1.714422	0.829467	0	0	4.040000e+01
202.359756	1.306192	city	4	1	1.265715	1.265715	0	1	0	0	CorrectCommission	0.223024	0.841445	0	0	4.010000e+01
203.665985	1.306268	city	10	1	1.018427	1.018427	0	1	0	0	CorrectCommission	1.586726	0.845338	0	0	3.980000e+01
204.958939	1.279642	city	1	1	1.076527	1.076527	0	1	0	0	CorrectCommission	1.266325	0.840792	0	0	3.950000e+01
206.245270	1.292996	city	8	1	1.235911	1.235911	0	1	0	0	CorrectCommission	0.387381	0.828108	0	0	3.920000e+01
207.538223	1.292929	city	10	1	1.072007	1.072007	0	1	0	0	CorrectCommission	1.291249	0.808203	0	0	3.890000e+01
208.837784	1.306179	city	1	1	1.148218	1.148218	0	1	0	0	CorrectCommission	0.870976	0.782420	0	0	3.860000e+01
210.130676	1.279604	city	4	1	1.381151	1.381151	0	1	0	0	CorrectCommission	0.413564	0.752499	0	0	3.830000e+01
211.436920	1.332884	city	7	1	1.237789	1.237789	0	1	0	0	CorrectCommission	0.377028	0.720344	1	0	38
212.743149	1.279582	city	2	1	1.093123	1.093123	0	1	0	0	CorrectCommission	1.174807	0.687844	1	0	3.770000e+01
214.029404	1.292922	city	6	1	1.404931	1.404931	0	1	0	0	CorrectCommission	0.544700	0.656715	1	0	3.740000e+01
215.328964	1.306197	city	5	1	1.498182	1.498182	0	1	0	0	CorrectCommission	1.058942	0.628433	1	0	3.710000e+01
216.635132	1.306149	city	9	1	1.336920	1.336920	0	1	0	0	CorrectCommission	0.169643	0.604122	1	0	3.680000e+01
217.934647	1.292867	city	8	1	1.297754	1.297754	0	1	0	0	CorrectCommission	0.046343	0.584549	1	0	3.650000e+01
219.247620	1.333079	city	7	1	1.301719	1.301719	0	1	0	0	CorrectCommission	0.024478	0.570159	1	0	3.620000e+01
220.560593	1.292867	mountain	1	0	0.000000	1.222816	1	0	0	0	CorrectOmission	0.459596	0.561206	1	0	3.590000e+01
221.846771	1.279486	city	2	1	1.154913	1.154913	0	1	0	0	CorrectCommission	0.834054	0.557823	1	0	3.560000e+01
223.133026	1.293025	city	4	1	1.191878	1.191878	0	1	0	0	CorrectCommission	0.630210	0.560165	1	0	3.530000e+01
224.432632	1.306200	city	8	1	1.005866	1.005866	0	1	0	0	CorrectCommission	1.655993	0.568494	1	0	35
225.732117	1.292773	city	10	1	1.263459	1.263459	0	1	0	0	CorrectCommission	0.235463	0.583094	1	0	3.470000e+01
227.018326	1.279633	city	6	1	1.296653	1.296653	0	1	0	0	CorrectCommission	0.052410	0.604270	1	0	3.440000e+01
228.311264	1.306252	city	5	1	1.245265	1.245265	0	1	0	0	CorrectCommission	0.335800	0.632050	1	0	3.410000e+01
229.610886	1.292979	city	6	1	1.407324	1.407324	0	1	0	0	CorrectCommission	0.557899	0.666034	1	0	3.380000e+01
230.917068	1.319410	city	5	1	1.355226	1.355226	0	1	0	0	CorrectCommission	0.270595	0.705219	1	0	3.350000e+01
232.216599	1.279633	city	1	1	1.391098	1.391098	0	1	0	0	CorrectCommission	0.468417	0.747885	0	0	3.320000e+01
233.502914	1.293009	city	2	1	1.356488	1.356488	0	1	0	0	CorrectCommission	0.277555	0.791647	0	0	3.290000e+01
234.789124	1.279418	city	9	1	1.503154	1.503154	0	1	0	0	CorrectCommission	1.086361	0.833674	0	0	3.260000e+01
236.095383	1.333084	city	1	1	1.503114	1.503114	0	1	0	0	CorrectCommission	1.086141	0.870963	0	0	3.230000e+01
240.580582	7.637322	break	0	0	0.000000	1.614041	0	0	0	0	ThoughtProbe	1.697862	0.900731	0	32	32
245.039108	1.279715	city	5	1	1.563109	1.563109	0	1	0	0	CorrectCommission	1.416993	0.920788	0	0	3.208824e+01
246.352081	1.346227	city	4	1	1.077493	1.077493	0	1	0	0	CorrectCommission	1.260999	0.929836	0	0	3.217647e+01
247.691635	1.332896	mountain	4	1	0.973576	0.973576	0	0	1	0	CommissionError	1.834064	0.927594	0	0	3.226471e+01
249.004532	1.292907	city	4	1	1.466304	1.466304	0	1	0	0	CorrectCommission	0.883152	0.914792	0	0	3.235294e+01
250.317398	1.332803	city	7	1	1.346096	1.346096	0	1	0	0	CorrectCommission	0.220244	0.893053	0	0	3.244118e+01
251.643539	1.319501	city	4	1	1.506270	1.506270	0	1	0	0	CorrectCommission	1.103546	0.864607	0	0	3.252941e+01
252.963074	1.319558	city	9	1	1.209260	1.209260	0	1	0	0	CorrectCommission	0.534355	0.831979	0	0	3.261765e+01
254.276062	1.306425	city	8	1	1.208646	1.208646	0	1	0	0	CorrectCommission	0.537738	0.797739	0	0	3.270588e+01
255.582397	1.306223	city	6	1	1.063692	1.063692	0	1	0	0	CorrectCommission	1.337107	0.764206	0	0	3.279412e+01
256.881866	1.292734	city	9	1	1.272741	1.272741	0	1	0	0	CorrectCommission	0.184279	0.733315	1	0	3.288235e+01
258.181427	1.306402	city	2	1	1.206291	1.206291	0	1	0	0	CorrectCommission	0.550723	0.706594	1	0	3.297059e+01
259.474396	1.279539	city	8	1	1.250675	1.250675	0	1	0	0	CorrectCommission	0.305963	0.685066	1	0	3.305882e+01
260.813965	1.399594	city	10	1	1.023946	1.023946	0	1	0	0	CorrectCommission	1.556289	0.669376	1	0	3.314706e+01
262.173553	1.319570	city	5	1	1.223059	1.223059	0	1	0	0	CorrectCommission	0.458254	0.659762	1	0	3.323529e+01
263.479797	1.292906	city	6	1	1.359369	1.359369	0	1	0	0	CorrectCommission	0.293441	0.656183	1	0	3.332353e+01
264.766052	1.279585	city	5	1	1.361392	1.361392	0	1	0	0	CorrectCommission	0.304599	0.658289	1	0	3.341176e+01
266.058777	1.305863	city	2	1	1.255751	1.255751	0	1	0	0	CorrectCommission	0.277974	0.665474	1	0	3.350000e+01
267.371674	1.319931	city	4	1	1.551058	1.551058	0	1	0	0	CorrectCommission	1.350537	0.676887	1	0	3.358824e+01
268.704651	1.346058	city	6	1	1.300627	1.300627	0	1	0	0	CorrectCommission	0.030496	0.691488	1	0	3.367647e+01
270.017487	1.279613	city	4	1	1.183971	1.183971	0	1	0	0	CorrectCommission	0.673810	0.708174	1	0	3.376471e+01
271.303802	1.293020	city	5	1	1.129420	1.129420	0	1	0	0	CorrectCommission	0.974643	0.725847	1	0	3.385294e+01
272.596741	1.292840	mountain	8	1	1.088675	1.088675	0	0	1	0	CommissionError	1.199337	0.743538	0	0	3.394118e+01
273.889648	1.292999	city	2	1	1.433947	1.433947	0	1	0	0	CorrectCommission	0.704713	0.760535	0	0	3.402941e+01
275.202515	1.332730	city	10	1	1.157026	1.157026	0	1	0	0	CorrectCommission	0.822406	0.776489	0	0	3.411765e+01
276.508759	1.279728	city	3	1	1.294816	1.294816	0	1	0	0	CorrectCommission	0.062545	0.791365	0	0	3.420588e+01
277.801758	1.306261	city	5	1	1.542613	1.542613	0	1	0	0	CorrectCommission	1.303964	0.805487	0	0	3.429412e+01
279.108002	1.306229	city	7	1	1.577567	1.577567	0	1	0	0	CorrectCommission	1.496724	0.819370	0	0	3.438235e+01
280.414215	1.306216	city	9	1	1.205085	1.205085	0	1	0	0	CorrectCommission	0.557375	0.833594	0	0	3.447059e+01
281.727020	1.319420	city	6	1	1.103921	1.103921	0	1	0	0	CorrectCommission	1.115261	0.848610	0	0	3.455882e+01
283.039886	1.306310	city	10	1	1.206565	1.206565	0	1	0	0	CorrectCommission	0.549216	0.864492	0	0	3.464706e+01
284.339417	1.292712	city	4	1	1.248916	1.248916	0	1	0	0	CorrectCommission	0.315665	0.880789	0	0	3.473529e+01
285.652283	1.333013	city	8	1	1.392133	1.392133	0	1	0	0	CorrectCommission	0.474123	0.896487	0	0	3.482353e+01
286.978546	1.319550	city	1	1	1.354871	1.354871	0	1	0	0	CorrectCommission	0.268637	0.909998	0	0	3.491176e+01
287.638336	9.636861	break	0	0	0.000000	1.487991	0	0	0	0	ThoughtProbe	1.002747	0.919407	0	35	35
297.921631	1.292911	city	8	1	1.651050	1.651050	0	1	0	0	CorrectCommission	1.901955	0.922693	0	0	3.522500e+01
299.214569	1.292967	city	1	1	1.703603	1.703603	0	1	0	0	CorrectCommission	2.191767	0.918158	0	0	3.545000e+01
300.507568	1.292985	city	6	1	1.537459	1.537459	0	1	0	0	CorrectCommission	1.275545	0.904685	0	0	3.567500e+01
301.833832	1.359573	mountain	5	0	0.000000	1.460266	1	0	0	0	CorrectOmission	0.849851	0.882020	0	0	3.590000e+01
303.153320	1.279392	city	4	1	1.347802	1.347802	0	1	0	0	CorrectCommission	0.229652	0.850834	0	0	3.612500e+01
304.466217	1.346387	city	9	1	1.075846	1.075846	0	1	0	0	CorrectCommission	1.270083	0.812704	0	0	3.635000e+01
305.785858	1.292928	mountain	4	0	0.000000	1.201657	1	0	0	0	CorrectOmission	0.576280	0.769957	0	0	3.657500e+01
307.085449	1.306245	city	3	1	1.444491	1.444491	0	1	0	0	CorrectCommission	0.762857	0.725416	1	0	3.680000e+01
308.405029	1.332887	city	1	1	1.523602	1.523602	0	1	0	0	CorrectCommission	1.199124	0.682111	1	0	3.702500e+01
309.731232	1.319547	city	9	1	1.333994	1.333994	0	1	0	0	CorrectCommission	0.153507	0.642967	1	0	3.725000e+01
311.077454	1.372903	city	8	1	1.311775	1.311775	0	1	0	0	CorrectCommission	0.030978	0.610594	1	0	3.747500e+01
312.416962	1.306101	city	6	1	1.249981	1.249981	0	1	0	0	CorrectCommission	0.309791	0.587010	1	0	3.770000e+01
313.736511	1.332984	city	7	1	1.424192	1.424192	0	1	0	0	CorrectCommission	0.650920	0.573530	1	0	3.792500e+01
315.062744	1.319477	city	9	1	1.348838	1.348838	0	1	0	0	CorrectCommission	0.235366	0.570667	1	0	3.815000e+01
316.382233	1.319547	city	8	1	1.370840	1.370840	0	1	0	0	CorrectCommission	0.356703	0.578148	1	0	3.837500e+01
317.715210	1.346368	city	7	1	1.295960	1.295960	0	1	0	0	CorrectCommission	0.056235	0.594978	1	0	3.860000e+01
319.034760	1.292744	city	10	1	1.102242	1.102242	0	1	0	0	CorrectCommission	1.124518	0.619551	1	0	3.882500e+01
320.347656	1.333056	city	9	1	1.257997	1.257997	0	1	0	0	CorrectCommission	0.265586	0.649789	1	0	3.905000e+01
321.673889	1.319413	city	5	1	1.156270	1.156270	0	1	0	0	CorrectCommission	0.826575	0.683392	1	0	3.927500e+01
322.973480	1.279744	city	6	1	1.362331	1.362331	0	1	0	0	CorrectCommission	0.309777	0.717900	1	0	3.950000e+01
324.266388	1.306078	city	7	1	1.702790	1.702790	0	1	0	0	CorrectCommission	2.187280	0.750945	0	0	3.972500e+01
325.585968	1.333066	city	2	1	1.366387	1.366387	0	1	0	0	CorrectCommission	0.332142	0.780292	0	0	3.995000e+01
326.912262	1.319554	city	1	1	1.390854	1.390854	0	1	0	0	CorrectCommission	0.467073	0.804084	0	0	4.017500e+01
328.258484	1.372882	city	3	1	1.314159	1.314159	0	1	0	0	CorrectCommission	0.044125	0.820829	0	0	4.040000e+01
329.591309	1.292758	mountain	9	1	1.059103	1.059103	0	0	1	0	CommissionError	1.362414	0.829603	0	0	4.062500e+01
330.884216	1.293060	city	7	1	1.755236	1.755236	0	1	0	0	CorrectCommission	2.476505	0.830040	0	0	4.085000e+01
332.210510	1.359530	city	5	1	1.167990	1.167990	0	1	0	0	CorrectCommission	0.761941	0.822407	0	0	4.107500e+01
333.543396	1.306257	city	2	1	1.093607	1.093607	0	1	0	0	CorrectCommission	1.172137	0.807615	0	0	4.130000e+01
334.856293	1.319538	city	10	1	1.217374	1.217374	0	1	0	0	CorrectCommission	0.489606	0.787068	0	0	4.152500e+01
336.155792	1.279432	city	6	1	1.352722	1.352722	0	1	0	0	CorrectCommission	0.256788	0.762622	0	0	4.175000e+01
337.495331	1.399637	city	1	1	1.234739	1.234739	0	1	0	0	CorrectCommission	0.393847	0.736376	1	0	4.197500e+01
338.854950	1.319610	city	3	1	1.204724	1.204724	0	1	0	0	CorrectCommission	0.559365	0.710536	1	0	4.220000e+01
340.167877	1.306269	city	9	1	1.086145	1.086145	0	1	0	0	CorrectCommission	1.213286	0.687263	1	0	4.242500e+01
341.487457	1.332875	city	4	1	1.124795	1.124795	0	1	0	0	CorrectCommission	1.000145	0.668498	1	0	4.265000e+01
342.813690	1.319585	city	6	1	1.202749	1.202749	0	1	0	0	CorrectCommission	0.570261	0.655862	1	0	4.287500e+01
344.139923	1.332881	city	9	1	1.276835	1.276835	0	1	0	0	CorrectCommission	0.161702	0.650491	1	0	4.310000e+01
345.446075	1.279413	city	3	1	1.322054	1.322054	0	1	0	0	CorrectCommission	0.087665	0.652927	1	0	4.332500e+01
346.758942	1.346312	city	7	1	1.457399	1.457399	0	1	0	0	CorrectCommission	0.834040	0.662997	1	0	4.355000e+01
348.078583	1.292995	city	6	1	1.305803	1.305803	0	1	0	0	CorrectCommission	0.001954	0.679745	1	0	4.377500e+01
352.243835	7.037512	break	0	0	0.000000	1.421221	0	0	0	0	ThoughtProbe	0.634531	0.701537	1	44	44
356.409119	1.293065	city	9	1	1.481509	1.481509	0	1	0	0	CorrectCommission	0.967001	0.726095	1	0	4.352174e+01
357.722107	1.332916	city	5	1	1.164527	1.164527	0	1	0	0	CorrectCommission	0.781039	0.750753	0	0	4.304348e+01
359.048340	1.319546	mountain	4	0	0.000000	1.311773	1	0	0	0	CorrectOmission	0.030970	0.772712	0	0	4.256522e+01
360.347839	1.279444	mountain	7	0	0.000000	1.578999	1	0	0	0	CorrectOmission	1.504620	0.789410	0	0	4.208696e+01
361.647400	1.319702	city	3	1	1.621954	1.621954	0	1	0	0	CorrectCommission	1.741503	0.798738	0	0	4.160870e+01
362.967041	1.319562	city	10	1	1.096390	1.096390	0	1	0	0	CorrectCommission	1.156790	0.799377	0	0	4.113043e+01
364.273285	1.292912	city	1	1	1.084240	1.084240	0	1	0	0	CorrectCommission	1.223792	0.790885	0	0	4.065217e+01
365.579529	1.319588	city	8	1	1.263758	1.263758	0	1	0	0	CorrectCommission	0.233819	0.773720	0	0	4.017391e+01
366.905762	1.332889	city	2	1	1.107262	1.107262	0	1	0	0	CorrectCommission	1.096831	0.749227	0	0	3.969565e+01
368.218567	1.292727	city	5	1	1.124488	1.124488	0	1	0	0	CorrectCommission	1.001839	0.719360	1	0	3.921739e+01
369.524689	1.319509	city	9	1	1.283704	1.283704	0	1	0	0	CorrectCommission	0.123821	0.686513	1	0	3.873913e+01
370.844330	1.319784	city	2	1	1.191495	1.191495	0	1	0	0	CorrectCommission	0.632321	0.653245	1	0	3.826087e+01
372.197266	1.386058	city	1	1	1.343217	1.343217	0	1	0	0	CorrectCommission	0.204371	0.621973	1	0	3.778261e+01
373.536835	1.293082	city	3	1	1.101938	1.101938	0	1	0	0	CorrectCommission	1.126192	0.594817	1	0	3.730435e+01
374.849823	1.332916	city	2	1	1.266934	1.266934	0	1	0	0	CorrectCommission	0.216301	0.573342	1	0	3.682609e+01
376.162628	1.292702	city	9	1	1.184378	1.184378	0	1	0	0	CorrectCommission	0.671567	0.558517	1	0	3.634783e+01
377.495453	1.372932	city	8	1	1.293811	1.293811	0	1	0	0	CorrectCommission	0.068083	0.550624	1	0	3.586957e+01
378.828369	1.292890	city	7	1	1.327832	1.327832	0	1	0	0	CorrectCommission	0.119529	0.549254	1	0	3.539130e+01
380.141327	1.333045	mountain	10	0	0.000000	1.208145	1	0	0	0	CorrectOmission	0.540501	0.553365	1	0	3.491304e+01
381.487640	1.359555	city	2	1	1.136399	1.136399	0	1	0	0	CorrectCommission	0.936157	0.561398	1	0	3.443478e+01
382.853821	1.372809	city	3	1	1.314240	1.314240	0	1	0	0	CorrectCommission	0.044576	0.571534	1	0	3.395652e+01
384.180054	1.279657	city	10	1	1.202976	1.202976	0	1	0	0	CorrectCommission	0.569004	0.581951	1	0	3.347826e+01
385.466339	1.292920	city	8	1	1.217515	1.217515	0	1	0	0	CorrectCommission	0.488830	0.591028	1	0	33
386.759247	1.292873	mountain	2	0	0.000000	1.485076	1	0	0	0	CorrectOmission	0.986669	0.597656	1	0	3.252174e+01
388.045471	1.279592	city	4	1	1.609309	1.609309	0	1	0	0	CorrectCommission	1.671767	0.601426	1	0	3.204348e+01
389.351715	1.332900	city	6	1	1.193862	1.193862	0	1	0	0	CorrectCommission	0.619265	0.602661	1	0	3.156522e+01
390.664581	1.292812	city	1	1	1.206045	1.206045	0	1	0	0	CorrectCommission	0.552083	0.602425	1	0	3.108696e+01
391.990784	1.359617	city	8	1	1.180276	1.180276	0	1	0	0	CorrectCommission	0.694191	0.602289	1	0	3.060870e+01
393.323730	1.306244	city	6	1	1.236086	1.236086	0	1	0	0	CorrectCommission	0.386415	0.604036	1	0	3.013043e+01
394.623291	1.292906	city	10	1	1.356216	1.356216	0	1	0	0	CorrectCommission	0.276058	0.609345	1	0	2.965217e+01
395.962708	1.385911	city	5	1	1.324477	1.324477	0	1	0	0	CorrectCommission	0.101024	0.619409	1	0	2.917391e+01
397.335449	1.359609	city	7	1	1.305584	1.305584	0	1	0	0	CorrectCommission	0.003161	0.634756	1	0	2.869565e+01
398.655090	1.279664	city	2	1	1.157598	1.157598	0	1	0	0	CorrectCommission	0.819250	0.655156	1	0	2.821739e+01
399.948059	1.306237	city	5	1	1.263765	1.263765	0	1	0	0	CorrectCommission	0.233779	0.679639	1	0	2.773913e+01
401.267609	1.332894	city	3	1	1.339148	1.339148	0	1	0	0	CorrectCommission	0.181929	0.706813	1	0	2.726087e+01
402.613861	1.359581	city	7	1	1.714445	1.714445	0	1	0	0	CorrectCommission	2.251556	0.735010	1	0	2.678261e+01
403.973419	1.359555	city	5	1	1.524433	1.524433	0	1	0	0	CorrectCommission	1.203711	0.762653	0	0	2.630435e+01
405.313049	1.319731	city	6	1	1.471635	1.471635	0	1	0	0	CorrectCommission	0.912546	0.788554	0	0	2.582609e+01
406.652710	1.359545	city	10	1	1.263987	1.263987	0	1	0	0	CorrectCommission	0.232551	0.812011	0	0	2.534783e+01
407.978912	1.292887	city	4	1	1.468458	1.468458	0	1	0	0	CorrectCommission	0.895027	0.832823	0	0	2.486957e+01
409.291779	1.332816	city	7	1	1.607420	1.607420	0	1	0	0	CorrectCommission	1.661353	0.851197	0	0	2.439130e+01
410.624573	1.332812	city	3	1	1.419558	1.419558	0	1	0	0	CorrectCommission	0.625364	0.867569	0	0	2.391304e+01
411.970764	1.359582	city	8	1	1.280262	1.280262	0	1	0	0	CorrectCommission	0.142803	0.882499	0	0	2.343478e+01
413.290344	1.279560	city	5	1	1.426485	1.426485	0	1	0	0	CorrectCommission	0.663565	0.896454	0	0	2.295652e+01
414.589996	1.319742	city	1	1	1.391902	1.391902	0	1	0	0	CorrectCommission	0.472851	0.909717	0	0	2.247826e+01
415.249878	13.435408	break	0	0	0.000000	1.475628	0	0	0	0	ThoughtProbe	0.934569	0.922448	0	22	22
429.345123	1.319710	city	7	0	0.000000	1.592481	0	0	0	1	OmissionError	1.578967	0.934697	0	0	2.220588e+01
430.658081	1.306161	mountain	2	0	0.000000	1.657277	1	0	0	0	CorrectOmission	1.936296	0.946532	0	0	2.241176e+01
431.957642	1.292983	city	5	1	1.584835	1.584835	0	1	0	0	CorrectCommission	1.536803	0.958062	0	0	2.261765e+01
433.297241	1.386235	city	2	1	1.289971	1.289971	0	1	0	0	CorrectCommission	0.089262	0.969418	0	0	2.282353e+01
434.656738	1.332763	city	8	1	1.187087	1.187087	0	1	0	0	CorrectCommission	0.656628	0.980693	0	0	2.302941e+01
436.002960	1.359672	city	10	1	1.212141	1.212141	0	1	0	0	CorrectCommission	0.518464	0.991732	0	0	2.323529e+01
437.322601	1.279573	city	3	1	1.363688	1.363688	0	1	0	0	CorrectCommission	0.317262	1.002056	0	0	2.344118e+01
438.628815	1.332904	city	7	1	1.748792	1.748792	0	1	0	0	CorrectCommission	2.440967	1.010774	0	0	2.364706e+01
439.968292	1.346047	city	8	1	1.329460	1.329460	0	1	0	0	CorrectCommission	0.128503	1.016548	0	0	2.385294e+01
441.307861	1.333056	city	7	1	1.123059	1.123059	0	1	0	0	CorrectCommission	1.009719	1.017847	0	0	2.405882e+01
442.627472	1.306168	city	10	1	1.046479	1.046479	0	1	0	0	CorrectCommission	1.432032	1.013022	0	0	2.426471e+01
443.960297	1.359486	city	1	1	0.996241	0.996241	0	1	0	0	CorrectCommission	1.709071	1.000634	0	0	2.447059e+01
445.306549	1.333049	city	4	1	1.163487	1.163487	0	1	0	0	CorrectCommission	0.786773	0.979765	0	0	2.467647e+01
446.646149	1.346130	city	5	1	1.054538	1.054538	0	1	0	0	CorrectCommission	1.387585	0.950260	0	0	2.488235e+01
447.992310	1.346220	city	9	1	1.141680	1.141680	0	1	0	0	CorrectCommission	0.907033	0.912888	0	0	2.508824e+01
449.338562	1.346233	city	8	1	1.058031	1.058031	0	1	0	0	CorrectCommission	1.368325	0.869423	0	0	2.529412e+01
450.671509	1.319665	city	2	1	1.015179	1.015179	0	1	0	0	CorrectCommission	1.604639	0.822501	0	0	2.550000e+01
451.997772	1.332871	city	3	1	1.348143	1.348143	0	1	0	0	CorrectCommission	0.231537	0.775477	0	0	2.570588e+01
453.323914	1.319441	city	2	1	1.350843	1.350843	0	1	0	0	CorrectCommission	0.246425	0.732158	1	0	2.591176e+01
454.656738	1.346180	city	7	1	1.297353	1.297353	0	1	0	0	CorrectCommission	0.048553	0.696387	1	0	2.611765e+01
455.976379	1.293090	city	3	1	1.408339	1.408339	0	1	0	0	CorrectCommission	0.563495	0.671756	1	0	2.632353e+01
457.289368	1.332900	mountain	9	0	0.000000	1.410694	1	0	0	0	CorrectOmission	0.576482	0.661260	1	0	2.652941e+01
458.595520	1.279420	city	3	1	1.326921	1.326921	0	1	0	0	CorrectCommission	0.114502	0.667011	1	0	2.673529e+01
459.915039	1.359617	city	9	1	1.179521	1.179521	0	1	0	0	CorrectCommission	0.698351	0.690067	1	0	2.694118e+01
461.241272	1.292822	city	4	1	1.363663	1.363663	0	1	0	0	CorrectCommission	0.317125	0.730299	1	0	2.714706e+01
462.567505	1.359647	city	8	1	1.269791	1.269791	0	1	0	0	CorrectCommission	0.200546	0.786385	0	0	2.735294e+01
463.907104	1.319573	city	3	1	1.330027	1.330027	0	1	0	0	CorrectCommission	0.131630	0.855841	0	0	2.755882e+01
465.253357	1.372945	city	9	1	1.046060	1.046060	0	1	0	0	CorrectCommission	1.434342	0.935148	0	0	2.776471e+01
466.606110	1.332565	city	8	1	1.069219	1.069219	0	1	0	0	CorrectCommission	1.306627	1.019954	0	0	2.797059e+01
467.938995	1.333191	city	3	1	1.189960	1.189960	0	1	0	0	CorrectCommission	0.640787	1.105354	0	0	2.817647e+01
469.265411	1.319620	city	8	1	1.020108	1.020108	0	1	0	0	CorrectCommission	1.577458	1.186284	0	0	2.838235e+01
470.584961	1.319469	city	2	1	1.086174	1.086174	0	1	0	0	CorrectCommission	1.213127	1.257822	0	0	2.858824e+01
471.911072	1.332798	city	6	1	1.379569	1.379569	0	1	0	0	CorrectCommission	0.404838	1.315660	0	0	2.879412e+01
472.577484	10.063379	break	0	0	0.000000	1.737040	0	0	0	0	ThoughtProbe	2.376159	1.356443	0	29	29
483.294067	1.306410	city	10	1	1.951299	1.951299	0	1	0	0	CorrectCommission	3.557718	1.378022	0	0	2.877500e+01
484.627045	1.359549	mountain	5	0	0.000000	1.815058	1	0	0	0	CorrectOmission	2.806395	1.379683	0	0	2.855000e+01
485.953278	1.292909	city	1	1	1.556317	1.556317	0	1	0	0	CorrectCommission	1.379540	1.362140	0	0	2.832500e+01
487.266174	1.332871	city	5	1	1.403081	1.403081	0	1	0	0	CorrectCommission	0.534499	1.327380	0	0	2.810000e+01
488.618958	1.372730	city	4	1	1.343225	1.343225	0	1	0	0	CorrectCommission	0.204416	1.278359	0	0	2.787500e+01
490.011841	1.413044	city	1	1	1.136067	1.136067	0	1	0	0	CorrectCommission	0.937987	1.218707	0	0	2.765000e+01
491.384796	1.332871	city	10	1	0.869928	0.869928	0	1	0	0	CorrectCommission	2.405644	1.152352	0	0	2.742500e+01
492.704285	1.306079	city	3	1	1.122357	1.122357	0	1	0	0	CorrectCommission	1.013590	1.083219	0	0	2.720000e+01
494.010437	1.306253	city	4	1	1.155288	1.155288	0	1	0	0	CorrectCommission	0.831990	1.015039	0	0	2.697500e+01
495.343445	1.359719	city	3	1	1.033434	1.033434	0	1	0	0	CorrectCommission	1.503969	0.951087	0	0	2.675000e+01
496.669739	1.292871	city	7	1	1.353050	1.353050	0	1	0	0	CorrectCommission	0.258594	0.894030	0	0	2.652500e+01
497.982544	1.332765	city	4	1	1.170175	1.170175	0	1	0	0	CorrectCommission	0.749891	0.845796	0	0	2.630000e+01
499.288788	1.279715	mountain	6	0	0.000000	1.259334	1	0	0	0	CorrectOmission	0.258214	0.807484	0	0	2.607500e+01
500.588348	1.319421	city	3	1	1.366292	1.366292	0	1	0	0	CorrectCommission	0.331619	0.779325	0	0	2.585000e+01
501.927917	1.359709	city	2	1	1.236815	1.236815	0	1	0	0	CorrectCommission	0.382396	0.760729	0	0	2.562500e+01
503.260803	1.306070	city	6	1	1.269033	1.269033	0	1	0	0	CorrectCommission	0.204729	0.750411	0	0	2.540000e+01
504.573639	1.319579	city	3	1	1.151306	1.151306	0	1	0	0	CorrectCommission	0.853950	0.746723	0	0	2.517500e+01
505.913269	1.359724	city	8	1	1.051045	1.051045	0	1	0	0	CorrectCommission	1.406851	0.747968	0	0	2.495000e+01
507.239594	1.292922	mountain	6	0	0.000000	1.159608	1	0	0	0	CorrectOmission	0.808165	0.752746	0	0	2.472500e+01
508.525848	1.279543	city	3	1	1.394695	1.394695	0	1	0	0	CorrectCommission	0.488252	0.760239	0	0	2.450000e+01
509.845367	1.359487	city	10	1	1.674006	1.674006	0	1	0	0	CorrectCommission	2.028549	0.770343	0	0	2.427500e+01
511.198242	1.346313	city	8	1	1.437543	1.437543	0	1	0	0	CorrectCommission	0.724542	0.783562	0	0	2.405000e+01
512.564453	1.386027	city	2	1	1.208936	1.208936	0	1	0	0	CorrectCommission	0.536139	0.800880	0	0	2.382500e+01
513.917297	1.319701	city	4	1	1.245142	1.245142	0	1	0	0	CorrectCommission	0.336477	0.823366	0	0	2.360000e+01
515.243591	1.332921	city	2	1	1.236430	1.236430	0	1	0	0	CorrectCommission	0.384522	0.851740	0	0	2.337500e+01
516.563110	1.306100	city	7	1	1.462487	1.462487	0	1	0	0	CorrectCommission	0.862101	0.885951	0	0	2.315000e+01
517.895935	1.359527	city	1	1	1.376873	1.376873	0	1	0	0	CorrectCommission	0.389969	0.924811	0	0	2.292500e+01
519.262207	1.373069	city	10	1	1.254631	1.254631	0	1	0	0	CorrectCommission	0.284148	0.965931	0	0	2.270000e+01
520.595215	1.292883	city	1	1	1.459439	1.459439	0	1	0	0	CorrectCommission	0.845289	1.005772	0	0	2.247500e+01
521.901367	1.319490	city	6	1	1.534177	1.534177	0	1	0	0	CorrectCommission	1.257446	1.040074	0	0	2.225000e+01
523.267517	1.412786	city	8	1	1.250901	1.250901	0	1	0	0	CorrectCommission	0.304720	1.064302	0	0	2.202500e+01
524.633789	1.319741	city	4	1	0.752336	0.752336	0	1	0	0	CorrectCommission	3.054117	1.074276	0	0	2.180000e+01
525.979980	1.372703	city	7	1	0.766028	0.766028	0	1	0	0	CorrectCommission	2.978614	1.066656	0	0	2.157500e+01
527.332886	1.333079	city	3	1	0.850031	0.850031	0	1	0	0	CorrectCommission	2.515367	1.039428	0	0	2.135000e+01
528.685791	1.372745	city	6	1	1.306795	1.306795	0	1	0	0	CorrectCommission	0.003517	0.992085	0	0	2.112500e+01
530.031921	1.319480	city	10	1	1.263386	1.263386	0	1	0	0	CorrectCommission	0.235868	0.925661	0	0	2.090000e+01
531.331543	1.279783	city	6	1	1.381609	1.381609	0	1	0	0	CorrectCommission	0.416086	0.842466	0	0	2.067500e+01
532.664551	1.386167	city	4	1	1.593149	1.593149	0	1	0	0	CorrectCommission	1.582651	0.745871	0	0	2.045000e+01
534.024048	1.332829	city	2	1	1.497641	1.497641	0	1	0	0	CorrectCommission	1.055963	0.639962	1	0	2.022500e+01
538.522522	7.664209	break	0	0	0.000000	1.402134	0	0	0	0	ThoughtProbe	0.529275	0.529275	1	20	20
