onset	duration	trial_type	image_type	Press	ReactionTime	ReactionTime_Interpolated	CorrectOmission	CorrectCommission	CommissionError	OmissionError	response_type	nonsmoothVarianceTimeCourse	VarianceTimeCourse	In_the_Zone	ThoughtProbe	ThoughtProbe_Interpolated
0.659544	1.292887	city	5	1	1.774875	1.774875	0	1	0	0	CorrectCommission	2.248657	2.248657	0	0	88
1.945787	1.279599	city	8	1	1.462888	1.462888	0	1	0	0	CorrectCommission	0.438039	1.967540	0	0	88
3.231953	1.292734	city	6	1	1.322777	1.322777	0	1	0	0	CorrectCommission	0.375098	1.696658	0	0	88
4.518191	1.279742	city	7	1	1.513791	1.513791	0	1	0	0	CorrectCommission	0.733452	1.445332	0	0	88
5.797852	1.279580	city	5	1	1.336931	1.336931	0	1	0	0	CorrectCommission	0.292951	1.221193	0	0	88
7.077350	1.279416	city	7	1	1.458560	1.458560	0	1	0	0	CorrectCommission	0.412923	1.029678	0	0	88
8.363628	1.293139	mountain	4	0	0.000000	1.459174	1	0	0	0	CorrectOmission	0.416486	0.873712	0	0	88
9.656553	1.292711	city	3	1	1.408672	1.408672	0	1	0	0	CorrectCommission	0.123396	0.753708	1	0	88
10.942761	1.279707	mountain	3	0	0.000000	1.376953	1	0	0	0	CorrectOmission	0.060687	0.667835	1	0	88
12.222413	1.279596	city	2	1	1.358689	1.358689	0	1	0	0	CorrectCommission	0.166682	0.612439	1	0	88
13.508659	1.292895	city	7	1	1.348553	1.348553	0	1	0	0	CorrectCommission	0.225504	0.582621	1	0	88
14.794904	1.279594	city	5	1	1.458546	1.458546	0	1	0	0	CorrectCommission	0.412838	0.572783	1	0	88
16.074436	1.279473	city	9	1	1.607948	1.607948	0	1	0	0	CorrectCommission	1.279895	0.577212	1	0	88
17.367268	1.306187	city	1	1	1.417511	1.417511	0	1	0	0	CorrectCommission	0.174690	0.590571	1	0	88
18.660236	1.279751	city	6	1	1.490082	1.490082	0	1	0	0	CorrectCommission	0.595859	0.608318	1	0	88
19.959871	1.319520	city	4	1	1.288208	1.288208	0	1	0	0	CorrectCommission	0.575715	0.626925	1	0	88
21.259439	1.279615	city	8	1	1.127763	1.127763	0	1	0	0	CorrectCommission	1.506862	0.644038	1	0	88
22.545687	1.292879	city	7	1	1.136086	1.136086	0	1	0	0	CorrectCommission	1.458559	0.658414	1	0	88
23.831848	1.279445	mountain	9	0	0.000000	1.353948	1	0	0	0	CorrectOmission	0.194194	0.669804	1	0	88
25.111429	1.279716	city	6	1	1.512038	1.512038	0	1	0	0	CorrectCommission	0.723279	0.678723	1	0	88
26.390995	1.279415	city	2	1	1.341043	1.341043	0	1	0	0	CorrectCommission	0.269090	0.686104	1	0	88
27.670906	1.280407	city	4	1	1.393722	1.393722	0	1	0	0	CorrectCommission	0.036635	0.693034	1	0	88
28.963917	1.305616	city	6	1	1.257466	1.257466	0	1	0	0	CorrectCommission	0.754129	0.700511	1	0	88
30.256500	1.279550	city	8	1	1.228415	1.228415	0	1	0	0	CorrectCommission	0.922724	0.709250	1	0	88
31.536058	1.279565	city	10	1	1.199739	1.199739	0	1	0	0	CorrectCommission	1.089151	0.719600	1	0	88
32.815548	1.279418	city	8	1	1.556477	1.556477	0	1	0	0	CorrectCommission	0.981185	0.731509	1	0	88
34.095093	1.279670	city	3	1	1.496575	1.496575	0	1	0	0	CorrectCommission	0.633541	0.744593	1	0	88
35.374763	1.279667	city	6	1	1.396206	1.396206	0	1	0	0	CorrectCommission	0.051048	0.758232	1	0	88
36.654320	1.279445	city	2	1	1.347603	1.347603	0	1	0	0	CorrectCommission	0.231019	0.771725	1	0	88
37.933826	1.279572	city	5	1	1.185499	1.185499	0	1	0	0	CorrectCommission	1.171793	0.784458	1	0	88
39.220127	1.293032	mountain	7	1	1.195427	1.195427	0	0	1	0	CommissionError	1.114171	0.796036	0	0	88
40.519760	1.306236	city	1	1	1.602049	1.602049	0	1	0	0	CorrectCommission	1.245658	0.806443	0	0	88
41.819344	1.292926	city	7	1	1.679558	1.679558	0	1	0	0	CorrectCommission	1.695483	0.816073	0	0	88
43.105583	1.279556	city	8	1	1.462587	1.462587	0	1	0	0	CorrectCommission	0.436292	0.825673	0	0	88
44.385155	1.279588	city	9	1	1.468228	1.468228	0	1	0	0	CorrectCommission	0.469031	0.836179	0	0	88
45.664734	1.279570	city	3	1	1.496171	1.496171	0	1	0	0	CorrectCommission	0.631199	0.848476	0	0	88
46.944241	1.279441	city	2	1	1.503690	1.503690	0	1	0	0	CorrectCommission	0.674833	0.863134	0	0	88
48.230450	1.292979	city	3	1	1.488706	1.488706	0	1	0	0	CorrectCommission	0.587873	0.880189	0	0	88
49.530090	1.306306	city	10	1	1.476277	1.476277	0	1	0	0	CorrectCommission	0.515743	0.898989	0	0	88
50.822983	1.279473	city	6	1	1.606856	1.606856	0	1	0	0	CorrectCommission	1.273560	0.918187	0	0	88
52.122620	1.319802	city	10	1	1.509975	1.509975	0	1	0	0	CorrectCommission	0.711308	0.935854	0	0	88
53.428802	1.292564	city	8	1	1.510913	1.510913	0	1	0	0	CorrectCommission	0.716752	0.949755	0	0	88
54.714996	1.279820	city	2	1	1.565669	1.565669	0	1	0	0	CorrectCommission	1.034532	0.957651	0	0	88
55.994682	1.279555	city	3	1	1.662840	1.662840	0	1	0	0	CorrectCommission	1.598461	0.957660	0	0	88
57.274250	1.279581	city	2	1	1.746194	1.746194	0	1	0	0	CorrectCommission	2.082207	0.948569	0	0	88
57.914040	10.156656	break	0	0	0.000000	1.671502	0	0	0	0	ThoughtProbe	1.648731	0.930032	0	88	88
68.710327	1.279266	city	2	0	0.000000	1.540640	0	0	0	1	OmissionError	0.889270	0.902620	0	0	8.832353e+01
69.989838	1.279751	city	9	1	1.455483	1.455483	0	1	0	0	CorrectCommission	0.395064	0.867752	0	0	8.864706e+01
71.269531	1.279635	city	8	1	1.517909	1.517909	0	1	0	0	CorrectCommission	0.757352	0.827469	0	0	8.897059e+01
72.549194	1.279687	city	6	1	1.352061	1.352061	0	1	0	0	CorrectCommission	0.205145	0.784181	1	0	8.929412e+01
73.835403	1.292744	city	8	1	1.389865	1.389865	0	1	0	0	CorrectCommission	0.014250	0.740410	1	0	8.961765e+01
75.141563	1.319572	mountain	3	0	0.000000	1.195961	1	0	0	0	CorrectOmission	1.111073	0.698522	1	0	8.994118e+01
76.447868	1.293038	city	5	1	1.069540	1.069540	0	1	0	0	CorrectCommission	1.844761	0.660564	1	0	9.026471e+01
77.734451	1.280121	city	9	1	1.309791	1.309791	0	1	0	0	CorrectCommission	0.450460	0.628174	1	0	9.058824e+01
79.033958	1.318893	city	3	1	1.382185	1.382185	0	1	0	0	CorrectCommission	0.030324	0.602521	1	0	9.091176e+01
80.333260	1.279717	city	5	1	1.397008	1.397008	0	1	0	0	CorrectCommission	0.055703	0.584247	1	0	9.123529e+01
81.612923	1.279599	city	9	1	1.400647	1.400647	0	1	0	0	CorrectCommission	0.076825	0.573448	1	0	9.155882e+01
82.899155	1.292867	city	4	1	1.310229	1.310229	0	1	0	0	CorrectCommission	0.447918	0.569689	1	0	9.188235e+01
84.198669	1.306174	city	6	1	1.211674	1.211674	0	1	0	0	CorrectCommission	1.019886	0.572040	1	0	9.220588e+01
85.491592	1.279672	city	7	1	1.302636	1.302636	0	1	0	0	CorrectCommission	0.491984	0.579167	1	0	9.252941e+01
86.771133	1.279410	city	5	1	1.461418	1.461418	0	1	0	0	CorrectCommission	0.429508	0.589501	1	0	9.285294e+01
88.057297	1.292910	city	9	1	1.469389	1.469389	0	1	0	0	CorrectCommission	0.475770	0.601334	1	0	9.317647e+01
89.343536	1.279577	city	5	1	1.345349	1.345349	0	1	0	0	CorrectCommission	0.244098	0.613004	1	0	9.350000e+01
90.623161	1.279673	city	10	1	1.617101	1.617101	0	1	0	0	CorrectCommission	1.333017	0.623068	1	0	9.382353e+01
91.922829	1.319652	city	8	1	1.662848	1.662848	0	1	0	0	CorrectCommission	1.598507	0.630392	1	0	9.414706e+01
93.229095	1.292887	city	5	1	1.380580	1.380580	0	1	0	0	CorrectCommission	0.039636	0.634286	1	0	9.447059e+01
94.528671	1.306256	city	10	1	1.325995	1.325995	0	1	0	0	CorrectCommission	0.356419	0.634586	1	0	9.479412e+01
95.828255	1.292913	mountain	2	0	0.000000	1.459186	1	0	0	0	CorrectOmission	0.416555	0.631557	1	0	9.511765e+01
97.121155	1.292886	city	7	1	1.596547	1.596547	0	1	0	0	CorrectCommission	1.213731	0.625897	1	0	9.544118e+01
98.407394	1.279597	city	9	1	1.554473	1.554473	0	1	0	0	CorrectCommission	0.969554	0.618616	1	0	9.576471e+01
99.686928	1.279476	city	10	1	1.335644	1.335644	0	1	0	0	CorrectCommission	0.300423	0.610914	1	0	9.608824e+01
100.966515	1.279686	city	5	1	1.293091	1.293091	0	1	0	0	CorrectCommission	0.547377	0.603993	1	0	9.641176e+01
102.246140	1.279572	city	1	1	1.256127	1.256127	0	1	0	0	CorrectCommission	0.761903	0.598908	1	0	9.673529e+01
103.525711	1.279568	city	9	1	1.357405	1.357405	0	1	0	0	CorrectCommission	0.174130	0.596415	1	0	9.705882e+01
104.805199	1.279411	city	5	1	1.348191	1.348191	0	1	0	0	CorrectCommission	0.227607	0.596895	1	0	9.738235e+01
106.091370	1.292933	city	9	1	1.516764	1.516764	0	1	0	0	CorrectCommission	0.750709	0.600316	1	0	9.770588e+01
107.377625	1.279567	city	5	1	1.301333	1.301333	0	1	0	0	CorrectCommission	0.499546	0.606272	1	0	9.802941e+01
108.657280	1.279754	city	1	1	1.350456	1.350456	0	1	0	0	CorrectCommission	0.214462	0.614116	1	0	9.835294e+01
109.936859	1.279397	city	7	1	1.432689	1.432689	0	1	0	0	CorrectCommission	0.262779	0.623125	1	0	9.867647e+01
114.015480	6.877849	break	0	0	0.000000	1.625852	0	0	0	0	ThoughtProbe	1.383800	0.632648	1	99	99
118.094109	1.279414	city	5	1	1.660736	1.660736	0	1	0	0	CorrectCommission	1.586250	0.642220	1	0	9.856522e+01
119.400352	1.333075	city	10	1	1.268133	1.268133	0	1	0	0	CorrectCommission	0.692221	0.651689	1	0	9.813043e+01
120.706711	1.279637	city	9	1	1.302358	1.302358	0	1	0	0	CorrectCommission	0.493596	0.661226	1	0	9.769565e+01
121.986237	1.279415	city	1	1	1.343367	1.343367	0	1	0	0	CorrectCommission	0.255601	0.671124	1	0	9.726087e+01
123.265739	1.279590	city	5	1	1.404610	1.404610	0	1	0	0	CorrectCommission	0.099819	0.681776	1	0	9.682609e+01
124.545403	1.279727	city	3	1	1.590784	1.590784	0	1	0	0	CorrectCommission	1.180285	0.693461	1	0	9.639130e+01
125.831688	1.292856	city	1	1	1.409757	1.409757	0	1	0	0	CorrectCommission	0.129692	0.706277	1	0	9.595652e+01
127.117928	1.279617	city	3	1	1.348374	1.348374	0	1	0	0	CorrectCommission	0.226546	0.720197	1	0	9.552174e+01
128.410812	1.306154	city	6	1	1.211250	1.211250	0	1	0	0	CorrectCommission	1.022341	0.735072	1	0	9.508696e+01
129.703690	1.279584	mountain	10	1	1.094093	1.094093	0	0	1	0	CommissionError	1.702267	0.750738	1	0	9.465217e+01
130.983307	1.279671	city	8	1	1.445250	1.445250	0	1	0	0	CorrectCommission	0.335679	0.767150	1	0	9.421739e+01
132.262939	1.279578	city	3	1	1.203215	1.203215	0	1	0	0	CorrectCommission	1.068976	0.784479	0	0	9.378261e+01
133.542419	1.279403	city	5	1	1.187385	1.187385	0	1	0	0	CorrectCommission	1.160846	0.803059	0	0	9.334783e+01
134.821930	1.279606	city	1	1	1.185705	1.185705	0	1	0	0	CorrectCommission	1.170596	0.823357	0	0	9.291304e+01
136.108246	1.293035	city	7	1	1.331302	1.331302	0	1	0	0	CorrectCommission	0.325621	0.845742	0	0	9.247826e+01
137.407913	1.306286	mountain	9	0	0.000000	1.396542	1	0	0	0	CorrectOmission	0.052997	0.870370	0	0	9.204348e+01
138.707474	1.292854	city	4	1	1.357494	1.357494	0	1	0	0	CorrectCommission	0.173613	0.896986	0	0	9.160870e+01
139.993622	1.279437	city	8	1	1.190232	1.190232	0	1	0	0	CorrectCommission	1.144319	0.924854	0	0	9.117391e+01
141.273224	1.279766	city	3	1	1.187876	1.187876	0	1	0	0	CorrectCommission	1.157996	0.952789	0	0	9.073913e+01
142.552719	1.279227	city	1	1	1.243387	1.243387	0	1	0	0	CorrectCommission	0.835839	0.979326	0	0	9.030435e+01
143.838959	1.293243	mountain	8	1	1.202649	1.202649	0	0	1	0	CommissionError	1.072263	1.002901	0	0	8.986957e+01
145.125351	1.279538	city	5	1	1.887578	1.887578	0	1	0	0	CorrectCommission	2.902732	1.022034	0	0	8.943478e+01
146.404861	1.279472	city	1	1	1.438725	1.438725	0	1	0	0	CorrectCommission	0.297811	1.035472	0	0	89
147.697769	1.306370	city	4	1	1.696591	1.696591	0	1	0	0	CorrectCommission	1.794335	1.042405	0	0	8.856522e+01
148.990753	1.279583	city	2	1	1.495764	1.495764	0	1	0	0	CorrectCommission	0.628833	1.042265	0	0	8.813043e+01
150.270340	1.279594	city	7	1	1.526484	1.526484	0	1	0	0	CorrectCommission	0.807120	1.034835	0	0	8.769565e+01
151.549927	1.279575	city	1	1	1.396379	1.396379	0	1	0	0	CorrectCommission	0.052052	1.020088	0	0	8.726087e+01
152.849411	1.319381	city	7	1	1.650634	1.650634	0	1	0	0	CorrectCommission	1.527623	0.998171	0	0	8.682609e+01
154.155624	1.293069	city	2	1	1.628659	1.628659	0	1	0	0	CorrectCommission	1.400092	0.969400	0	0	8.639130e+01
155.448624	1.292926	city	9	1	1.671721	1.671721	0	1	0	0	CorrectCommission	1.650003	0.934398	0	0	8.595652e+01
156.734894	1.279607	city	2	1	1.313216	1.313216	0	1	0	0	CorrectCommission	0.430582	0.894155	0	0	8.552174e+01
158.021133	1.292864	city	8	1	1.256848	1.256848	0	1	0	0	CorrectCommission	0.757714	0.850109	0	0	8.508696e+01
159.320679	1.306234	city	10	1	0.987078	0.987078	0	1	0	0	CorrectCommission	2.323329	0.804171	0	0	8.465217e+01
160.613586	1.279585	city	2	1	1.294346	1.294346	0	1	0	0	CorrectCommission	0.540097	0.758562	1	0	8.421739e+01
161.893127	1.279504	mountain	1	1	1.355905	1.355905	0	0	1	0	CommissionError	0.182836	0.715722	1	0	8.378261e+01
163.179306	1.292848	city	9	1	1.360696	1.360696	0	1	0	0	CorrectCommission	0.155032	0.677936	1	0	8.334783e+01
164.472183	1.292896	city	3	1	1.351919	1.351919	0	1	0	0	CorrectCommission	0.205973	0.647074	1	0	8.291304e+01
165.758408	1.279574	city	5	1	1.338486	1.338486	0	1	0	0	CorrectCommission	0.283929	0.624296	1	0	8.247826e+01
167.038071	1.279752	city	9	1	1.449918	1.449918	0	1	0	0	CorrectCommission	0.362768	0.609907	1	0	8.204348e+01
168.317749	1.279576	city	2	1	1.424929	1.424929	0	1	0	0	CorrectCommission	0.217742	0.603294	1	0	8.160870e+01
169.603989	1.292915	city	8	1	1.277128	1.277128	0	1	0	0	CorrectCommission	0.640021	0.603071	1	0	8.117391e+01
170.903564	1.306231	city	2	1	1.272694	1.272694	0	1	0	0	CorrectCommission	0.665754	0.607255	1	0	8.073913e+01
172.216446	1.319526	city	3	1	1.180211	1.180211	0	1	0	0	CorrectCommission	1.202482	0.613630	1	0	8.030435e+01
173.516006	1.279596	city	6	1	1.345700	1.345700	0	1	0	0	CorrectCommission	0.242065	0.619996	1	0	7.986957e+01
174.802246	1.292911	city	10	1	1.189074	1.189074	0	1	0	0	CorrectCommission	1.151040	0.624596	1	0	7.943478e+01
175.448715	9.316908	break	0	0	0.000000	1.197405	0	0	0	0	ThoughtProbe	1.102693	0.626191	1	79	79
185.405380	1.279513	city	4	0	0.000000	1.279892	0	0	0	1	OmissionError	0.623979	0.624239	1	0	7.929412e+01
186.684967	1.279672	city	7	1	1.345736	1.345736	0	1	0	0	CorrectCommission	0.241854	0.618885	1	0	7.958824e+01
187.971191	1.292771	city	2	1	1.304137	1.304137	0	1	0	0	CorrectCommission	0.483272	0.610837	1	0	7.988235e+01
189.257431	1.279717	city	4	1	1.576745	1.576745	0	1	0	0	CorrectCommission	1.098806	0.601159	1	0	8.017647e+01
190.543686	1.292789	city	7	1	1.380801	1.380801	0	1	0	0	CorrectCommission	0.038351	0.591097	1	0	8.047059e+01
191.836533	1.292912	city	2	1	1.206173	1.206173	0	1	0	0	CorrectCommission	1.051810	0.581929	1	0	8.076471e+01
193.122849	1.279724	city	3	1	1.295088	1.295088	0	1	0	0	CorrectCommission	0.535792	0.574704	1	0	8.105882e+01
194.402481	1.279545	mountain	4	0	0.000000	1.352923	1	0	0	0	CorrectOmission	0.200142	0.570198	1	0	8.135294e+01
195.682053	1.279601	city	6	1	1.350601	1.350601	0	1	0	0	CorrectCommission	0.213619	0.568786	1	0	8.164706e+01
196.968216	1.292721	city	9	1	1.259042	1.259042	0	1	0	0	CorrectCommission	0.744984	0.570515	1	0	8.194118e+01
198.254410	1.279670	city	8	1	1.394755	1.394755	0	1	0	0	CorrectCommission	0.042626	0.575127	1	0	8.223529e+01
199.534042	1.279569	city	4	1	1.459259	1.459259	0	1	0	0	CorrectCommission	0.416979	0.582207	1	0	8.252941e+01
200.820328	1.293020	city	3	1	1.253429	1.253429	0	1	0	0	CorrectCommission	0.777558	0.591269	1	0	8.282353e+01
202.106613	1.279552	city	5	1	1.038410	1.038410	0	1	0	0	CorrectCommission	2.025424	0.601884	1	0	8.311765e+01
203.386108	1.279440	city	9	1	1.337945	1.337945	0	1	0	0	CorrectCommission	0.287072	0.613732	1	0	8.341176e+01
204.698975	1.346271	city	3	1	1.485754	1.485754	0	1	0	0	CorrectCommission	0.570744	0.626673	1	0	8.370588e+01
206.018524	1.292840	city	6	1	1.378007	1.378007	0	1	0	0	CorrectCommission	0.054570	0.640571	1	0	84
207.311401	1.292929	city	1	1	1.364752	1.364752	0	1	0	0	CorrectCommission	0.131495	0.655283	1	0	8.429412e+01
208.597733	1.279720	city	4	1	1.536740	1.536740	0	1	0	0	CorrectCommission	0.866637	0.670527	1	0	8.458824e+01
209.897369	1.319566	city	3	1	1.407916	1.407916	0	1	0	0	CorrectCommission	0.119008	0.685830	1	0	8.488235e+01
211.216949	1.319567	city	1	1	1.094992	1.094992	0	1	0	0	CorrectCommission	1.697048	0.700541	1	0	8.517647e+01
212.523178	1.292898	city	5	1	1.249263	1.249263	0	1	0	0	CorrectCommission	0.801737	0.713811	1	0	8.547059e+01
213.809372	1.279506	mountain	3	0	0.000000	1.265355	1	0	0	0	CorrectOmission	0.708348	0.724789	1	0	8.576471e+01
215.088974	1.279676	city	5	1	1.342588	1.342588	0	1	0	0	CorrectCommission	0.260126	0.732658	1	0	8.605882e+01
216.368591	1.279558	city	4	1	1.680282	1.680282	0	1	0	0	CorrectCommission	1.699688	0.736792	1	0	8.635294e+01
217.654739	1.292748	city	3	1	1.472519	1.472519	0	1	0	0	CorrectCommission	0.493933	0.736792	1	0	8.664706e+01
218.960983	1.319753	city	1	1	1.322995	1.322995	0	1	0	0	CorrectCommission	0.373829	0.732647	1	0	8.694118e+01
220.260574	1.279405	city	2	1	1.308395	1.308395	0	1	0	0	CorrectCommission	0.458562	0.724714	1	0	8.723529e+01
221.580139	1.359727	city	4	1	1.165058	1.165058	0	1	0	0	CorrectCommission	1.290421	0.713791	1	0	8.752941e+01
222.913025	1.306060	city	6	1	1.163584	1.163584	0	1	0	0	CorrectCommission	1.298976	0.701088	1	0	8.782353e+01
224.205856	1.279595	city	1	1	1.245747	1.245747	0	1	0	0	CorrectCommission	0.822142	0.688217	1	0	8.811765e+01
225.485535	1.279778	city	3	1	1.298266	1.298266	0	1	0	0	CorrectCommission	0.517344	0.677072	1	0	8.841176e+01
226.771866	1.292862	city	4	1	1.418801	1.418801	0	1	0	0	CorrectCommission	0.182177	0.669678	1	0	8.870588e+01
227.418289	8.437229	break	0	0	0.000000	1.467975	0	0	0	0	ThoughtProbe	0.467564	0.668005	1	89	89
236.495316	1.279578	city	10	0	0.000000	1.456038	0	0	0	1	OmissionError	0.398287	0.673761	1	0	8.845000e+01
237.774811	1.279415	city	7	0	0.000000	1.393237	0	0	0	1	OmissionError	0.033817	0.688199	1	0	8.790000e+01
239.054398	1.279773	city	3	1	1.289818	1.289818	0	1	0	0	CorrectCommission	0.566376	0.712019	1	0	8.735000e+01
240.347382	1.306185	city	6	1	1.156028	1.156028	0	1	0	0	CorrectCommission	1.342823	0.745173	1	0	8.680000e+01
241.640259	1.279580	city	8	1	1.202654	1.202654	0	1	0	0	CorrectCommission	1.072232	0.786809	0	0	8.625000e+01
242.926498	1.292908	city	3	1	1.260427	1.260427	0	1	0	0	CorrectCommission	0.736945	0.835264	0	0	8.570000e+01
244.212753	1.279597	city	2	1	1.396680	1.396680	0	1	0	0	CorrectCommission	0.053802	0.888059	0	0	8.515000e+01
245.498947	1.292778	city	5	1	1.425786	1.425786	0	1	0	0	CorrectCommission	0.222717	0.942053	0	0	8.460000e+01
246.805191	1.319726	city	2	1	1.400346	1.400346	0	1	0	0	CorrectCommission	0.075076	0.993591	0	0	8.405000e+01
248.111496	1.292864	mountain	8	0	0.000000	1.695355	1	0	0	0	CorrectOmission	1.787160	1.038861	0	0	8.350000e+01
249.397705	1.279573	city	5	1	1.906168	1.906168	0	1	0	0	CorrectCommission	3.010617	1.074224	0	0	8.295000e+01
250.697281	1.319568	city	2	1	1.628142	1.628142	0	1	0	0	CorrectCommission	1.397093	1.096669	0	0	8.240000e+01
252.023514	1.332893	mountain	3	0	0.000000	1.610223	1	0	0	0	CorrectOmission	1.293098	1.104136	0	0	8.185000e+01
253.343033	1.306146	city	6	1	1.652128	1.652128	0	1	0	0	CorrectCommission	1.536295	1.095745	0	0	8.130000e+01
254.635941	1.279674	city	5	1	1.553576	1.553576	0	1	0	0	CorrectCommission	0.964346	1.071905	0	0	8.075000e+01
255.922241	1.292908	city	10	0	0.000000	1.603033	0	0	0	1	OmissionError	1.251371	1.034292	0	0	8.020000e+01
257.221802	1.306257	city	6	1	1.644774	1.644774	0	1	0	0	CorrectCommission	1.493618	0.985609	0	0	7.965000e+01
258.514709	1.279559	city	7	1	1.523075	1.523075	0	1	0	0	CorrectCommission	0.787335	0.929351	0	0	7.910000e+01
259.794281	1.279568	city	9	1	1.519598	1.519598	0	1	0	0	CorrectCommission	0.767155	0.869478	0	0	7.855000e+01
261.087128	1.306110	city	7	1	1.486696	1.486696	0	1	0	0	CorrectCommission	0.576210	0.809994	0	0	78
262.379974	1.279576	city	9	1	1.310314	1.310314	0	1	0	0	CorrectCommission	0.447428	0.754634	1	0	7.745000e+01
263.659607	1.279726	city	8	1	1.236493	1.236493	0	1	0	0	CorrectCommission	0.875844	0.706564	1	0	7.690000e+01
264.939301	1.279622	city	7	1	1.304241	1.304241	0	1	0	0	CorrectCommission	0.482671	0.668120	1	0	7.635000e+01
266.218872	1.279547	city	2	1	1.406048	1.406048	0	1	0	0	CorrectCommission	0.108165	0.640682	1	0	7.580000e+01
267.505096	1.292920	city	1	1	1.366345	1.366345	0	1	0	0	CorrectCommission	0.122248	0.624619	1	0	7.525000e+01
268.797943	1.292715	city	9	1	1.347838	1.347838	0	1	0	0	CorrectCommission	0.229652	0.619356	1	0	7.470000e+01
270.104156	1.319730	mountain	5	0	0.000000	1.467169	1	0	0	0	CorrectOmission	0.462883	0.623581	1	0	7.415000e+01
271.410461	1.292904	city	3	1	1.532633	1.532633	0	1	0	0	CorrectCommission	0.842803	0.635505	1	0	7.360000e+01
272.696564	1.279277	city	8	1	1.352527	1.352527	0	1	0	0	CorrectCommission	0.202444	0.653132	1	0	7.305000e+01
273.996124	1.319869	city	10	1	1.243436	1.243436	0	1	0	0	CorrectCommission	0.835553	0.674571	1	0	7.250000e+01
275.295868	1.279578	city	3	1	1.734468	1.734468	0	1	0	0	CorrectCommission	2.014153	0.698243	1	0	7.195000e+01
276.575409	1.279509	city	6	1	1.501238	1.501238	0	1	0	0	CorrectCommission	0.660605	0.723000	1	0	7.140000e+01
277.854889	1.279495	city	8	1	1.289570	1.289570	0	1	0	0	CorrectCommission	0.567814	0.748198	1	0	7.085000e+01
279.154480	1.319682	city	10	1	1.271121	1.271121	0	1	0	0	CorrectCommission	0.674885	0.773519	1	0	7.030000e+01
280.454132	1.279617	city	7	1	1.512000	1.512000	0	1	0	0	CorrectCommission	0.723059	0.798812	0	0	6.975000e+01
281.753693	1.319498	city	4	1	1.406260	1.406260	0	1	0	0	CorrectCommission	0.109398	0.823896	0	0	6.920000e+01
283.059937	1.292971	city	2	1	1.269996	1.269996	0	1	0	0	CorrectCommission	0.681413	0.848417	0	0	6.865000e+01
284.366211	1.319592	city	8	1	1.166620	1.166620	0	1	0	0	CorrectCommission	1.281352	0.871723	0	0	6.810000e+01
285.665802	1.279583	city	1	1	1.457177	1.457177	0	1	0	0	CorrectCommission	0.404893	0.892939	0	0	6.755000e+01
286.305603	13.768621	break	0	0	0.000000	1.294328	0	0	0	0	ThoughtProbe	0.540203	0.911146	0	67	67
300.713989	1.279538	city	2	0	0.000000	1.023257	0	0	0	1	OmissionError	2.113365	0.925511	0	0	6.740000e+01
301.993652	1.279779	city	6	1	0.989147	0.989147	0	1	0	0	CorrectCommission	2.311318	0.935473	0	0	6.780000e+01
303.273224	1.279413	city	8	1	1.537184	1.537184	0	1	0	0	CorrectCommission	0.869214	0.940921	0	0	6.820000e+01
304.572723	1.319572	city	5	1	1.383162	1.383162	0	1	0	0	CorrectCommission	0.024654	0.942251	0	0	6.860000e+01
305.872314	1.279622	city	10	1	1.411448	1.411448	0	1	0	0	CorrectCommission	0.139505	0.940253	0	0	69
307.158569	1.292866	city	8	1	1.586772	1.586772	0	1	0	0	CorrectCommission	1.156999	0.936010	0	0	6.940000e+01
308.464783	1.319589	city	4	1	1.769244	1.769244	0	1	0	0	CorrectCommission	2.215978	0.930710	0	0	6.980000e+01
309.777710	1.306248	city	2	1	1.536665	1.536665	0	1	0	0	CorrectCommission	0.866203	0.925472	0	0	7.020000e+01
311.077271	1.292889	city	8	1	1.404649	1.404649	0	1	0	0	CorrectCommission	0.100046	0.921215	0	0	7.060000e+01
312.370178	1.292916	mountain	7	0	0.000000	1.415702	1	0	0	0	CorrectOmission	0.164196	0.918504	0	0	71
313.664795	1.296297	city	10	1	1.535116	1.535116	0	1	0	0	CorrectCommission	0.857214	0.917507	0	0	7.140000e+01
314.951111	1.276331	city	3	1	1.728179	1.728179	0	1	0	0	CorrectCommission	1.977659	0.918021	0	0	7.180000e+01
316.229065	1.279595	city	6	1	1.485010	1.485010	0	1	0	0	CorrectCommission	0.566425	0.919534	0	0	7.220000e+01
317.535248	1.332746	city	2	1	1.308450	1.308450	0	1	0	0	CorrectCommission	0.458241	0.921402	0	0	7.260000e+01
318.848114	1.292984	mountain	1	0	0.000000	1.131590	1	0	0	0	CorrectOmission	1.484654	0.922887	0	0	73
320.134338	1.279487	city	7	1	1.132440	1.132440	0	1	0	0	CorrectCommission	1.479718	0.923292	0	0	7.340000e+01
321.413879	1.279570	city	8	1	1.489015	1.489015	0	1	0	0	CorrectCommission	0.589666	0.921996	0	0	7.380000e+01
322.713531	1.319749	city	3	1	1.284137	1.284137	0	1	0	0	CorrectCommission	0.599343	0.918551	0	0	7.420000e+01
324.013184	1.279552	city	2	1	1.525647	1.525647	0	1	0	0	CorrectCommission	0.802260	0.912649	0	0	7.460000e+01
325.312744	1.319565	city	5	1	1.545266	1.545266	0	1	0	0	CorrectCommission	0.916123	0.904102	0	0	75
326.625610	1.306198	city	4	1	1.597205	1.597205	0	1	0	0	CorrectCommission	1.217545	0.892905	0	0	7.540000e+01
327.931854	1.306293	city	8	1	1.212448	1.212448	0	1	0	0	CorrectCommission	1.015393	0.879227	0	0	7.580000e+01
329.224792	1.279576	city	3	1	1.128104	1.128104	0	1	0	0	CorrectCommission	1.504885	0.863424	0	0	7.620000e+01
330.504395	1.279632	city	2	1	1.364975	1.364975	0	1	0	0	CorrectCommission	0.130201	0.846053	0	0	7.660000e+01
331.797302	1.306168	mountain	3	0	0.000000	1.483937	1	0	0	0	CorrectOmission	0.560198	0.827959	0	0	77
333.090088	1.279424	city	10	1	1.551647	1.551647	0	1	0	0	CorrectCommission	0.953150	0.810209	0	0	7.740000e+01
334.376251	1.292908	city	2	1	1.634759	1.634759	0	1	0	0	CorrectCommission	1.435493	0.794042	0	0	7.780000e+01
335.669250	1.293085	city	5	1	1.476670	1.476670	0	1	0	0	CorrectCommission	0.518025	0.780785	1	0	7.820000e+01
336.968842	1.306070	city	6	1	1.524728	1.524728	0	1	0	0	CorrectCommission	0.796927	0.771743	1	0	7.860000e+01
338.261749	1.279741	city	1	1	1.351960	1.351960	0	1	0	0	CorrectCommission	0.205733	0.768048	1	0	79
339.541321	1.279399	city	10	1	1.284090	1.284090	0	1	0	0	CorrectCommission	0.599617	0.770516	1	0	7.940000e+01
340.840881	1.319731	city	5	1	1.593357	1.593357	0	1	0	0	CorrectCommission	1.195218	0.779457	1	0	7.980000e+01
342.140533	1.279587	city	10	1	1.396560	1.396560	0	1	0	0	CorrectCommission	0.053104	0.794556	0	0	8.020000e+01
343.420135	1.279589	city	5	1	1.357355	1.357355	0	1	0	0	CorrectCommission	0.174421	0.814890	0	0	8.060000e+01
344.699646	1.279474	city	3	1	1.734701	1.734701	0	1	0	0	CorrectCommission	2.015507	0.838959	0	0	81
345.979218	1.279663	city	7	1	1.388790	1.388790	0	1	0	0	CorrectCommission	0.008012	0.864787	0	0	8.140000e+01
347.312164	1.386213	city	4	1	1.353217	1.353217	0	1	0	0	CorrectCommission	0.198439	0.890243	0	0	8.180000e+01
348.664978	1.319412	city	8	1	1.076270	1.076270	0	1	0	0	CorrectCommission	1.805701	0.913214	0	0	8.220000e+01
349.971222	1.293082	city	2	1	1.212556	1.212556	0	1	0	0	CorrectCommission	1.014765	0.931900	0	0	8.260000e+01
350.617767	8.490535	break	0	1	1.075864	1.075864	0	0	0	0	ThoughtProbe	1.808057	0.945077	0	83	83
359.748077	1.279564	city	3	1	1.684913	1.684913	0	1	0	0	CorrectCommission	1.726562	0.952152	0	0	8.254348e+01
361.027649	1.279601	city	2	1	1.550894	1.550894	0	1	0	0	CorrectCommission	0.948780	0.953247	0	0	8.208696e+01
362.307190	1.279441	city	6	1	1.444128	1.444128	0	1	0	0	CorrectCommission	0.329166	0.949065	0	0	8.163043e+01
363.586761	1.279712	city	4	1	1.335277	1.335277	0	1	0	0	CorrectCommission	0.302553	0.940702	0	0	8.117391e+01
364.866394	1.279580	city	5	1	1.134881	1.134881	0	1	0	0	CorrectCommission	1.465551	0.929434	0	0	8.071739e+01
366.152649	1.292894	city	10	1	1.196539	1.196539	0	1	0	0	CorrectCommission	1.107719	0.916496	0	0	8.026087e+01
367.438812	1.279444	city	1	1	1.457060	1.457060	0	1	0	0	CorrectCommission	0.404218	0.902968	0	0	7.980435e+01
368.718384	1.279710	city	7	1	1.409949	1.409949	0	1	0	0	CorrectCommission	0.130808	0.889727	0	0	7.934783e+01
369.998047	1.279601	mountain	9	0	0.000000	1.165530	1	0	0	0	CorrectOmission	1.287679	0.877421	0	0	7.889130e+01
371.277557	1.279393	mountain	3	1	1.130346	1.130346	0	0	1	0	CommissionError	1.491873	0.866522	0	0	7.843478e+01
372.557129	1.279765	city	6	1	1.710937	1.710937	0	1	0	0	CorrectCommission	1.877594	0.857440	0	0	7.797826e+01
373.836700	1.279399	city	7	1	1.391775	1.391775	0	1	0	0	CorrectCommission	0.025335	0.850527	0	0	7.752174e+01
375.116272	1.279742	city	6	1	1.338315	1.338315	0	1	0	0	CorrectCommission	0.284922	0.846129	0	0	7.706522e+01
376.395905	1.279519	city	9	1	1.231029	1.231029	0	1	0	0	CorrectCommission	0.907557	0.844428	0	0	7.660870e+01
377.675476	1.279637	city	2	1	1.285072	1.285072	0	1	0	0	CorrectCommission	0.593917	0.845465	0	0	7.615217e+01
378.955078	1.279581	city	9	1	1.497541	1.497541	0	1	0	0	CorrectCommission	0.639147	0.849084	0	0	7.569565e+01
380.234680	1.279573	city	10	1	1.553309	1.553309	0	1	0	0	CorrectCommission	0.962797	0.854849	0	0	7.523913e+01
381.514252	1.279600	city	9	1	1.631873	1.631873	0	1	0	0	CorrectCommission	1.418741	0.862161	0	0	7.478261e+01
382.800415	1.292750	city	10	1	1.457733	1.457733	0	1	0	0	CorrectCommission	0.408122	0.870292	0	0	7.432609e+01
384.086609	1.279580	city	5	1	1.444250	1.444250	0	1	0	0	CorrectCommission	0.329873	0.878508	0	0	7.386957e+01
385.366241	1.279742	mountain	10	1	1.655113	1.655113	0	0	1	0	CommissionError	1.553620	0.886201	0	0	7.341304e+01
386.645844	1.279416	mountain	4	0	0.000000	1.575947	1	0	0	0	CorrectOmission	1.094179	0.892959	0	0	7.295652e+01
387.925323	1.279562	city	1	1	1.497545	1.497545	0	1	0	0	CorrectCommission	0.639168	0.898680	0	0	7.250000e+01
389.204895	1.279595	city	6	1	1.710699	1.710699	0	1	0	0	CorrectCommission	1.876210	0.903552	0	0	7.204348e+01
390.484497	1.279578	city	7	1	1.548866	1.548866	0	1	0	0	CorrectCommission	0.937014	0.907930	0	0	7.158696e+01
391.764069	1.279609	city	10	1	1.391143	1.391143	0	1	0	0	CorrectCommission	0.021666	0.912265	0	0	7.113043e+01
393.043732	1.279693	city	8	1	1.551029	1.551029	0	1	0	0	CorrectCommission	0.949565	0.916884	0	0	7.067391e+01
394.323334	1.279483	city	9	1	1.553422	1.553422	0	1	0	0	CorrectCommission	0.963452	0.921835	0	0	7.021739e+01
395.602905	1.279673	city	7	1	1.394134	1.394134	0	1	0	0	CorrectCommission	0.039022	0.926855	0	0	6.976087e+01
396.882538	1.279593	city	10	1	1.177460	1.177460	0	1	0	0	CorrectCommission	1.218446	0.931374	0	0	6.930435e+01
398.162048	1.279428	city	7	1	1.230976	1.230976	0	1	0	0	CorrectCommission	0.907865	0.934518	0	0	6.884783e+01
399.441620	1.279736	city	10	1	1.076582	1.076582	0	1	0	0	CorrectCommission	1.803891	0.935379	0	0	6.839130e+01
400.721283	1.279559	city	4	1	1.230706	1.230706	0	1	0	0	CorrectCommission	0.909431	0.933115	0	0	6.793478e+01
402.000793	1.279488	city	9	1	1.175697	1.175697	0	1	0	0	CorrectCommission	1.228674	0.927234	0	0	6.747826e+01
403.280396	1.279685	city	1	1	1.231852	1.231852	0	1	0	0	CorrectCommission	0.902780	0.917594	0	0	6.702174e+01
404.560028	1.279582	city	3	1	1.284159	1.284159	0	1	0	0	CorrectCommission	0.599215	0.904463	0	0	6.656522e+01
405.839600	1.279559	city	6	1	1.177640	1.177640	0	1	0	0	CorrectCommission	1.217398	0.888459	0	0	6.610870e+01
407.119171	1.279603	city	7	1	1.192353	1.192353	0	1	0	0	CorrectCommission	1.132013	0.870391	0	0	6.565217e+01
408.398743	1.279576	city	4	1	1.284280	1.284280	0	1	0	0	CorrectCommission	0.598513	0.851135	0	0	6.519565e+01
409.678314	1.279556	city	5	1	1.260480	1.260480	0	1	0	0	CorrectCommission	0.736639	0.831443	0	0	6.473913e+01
410.957886	1.279585	city	2	1	1.289953	1.289953	0	1	0	0	CorrectCommission	0.565588	0.811841	0	0	6.428261e+01
412.237396	1.279419	city	4	1	1.337404	1.337404	0	1	0	0	CorrectCommission	0.290209	0.792566	0	0	6.382609e+01
413.516968	1.279735	city	9	1	1.250992	1.250992	0	1	0	0	CorrectCommission	0.791702	0.773579	1	0	6.336957e+01
414.796570	1.279465	city	2	1	1.194740	1.194740	0	1	0	0	CorrectCommission	1.118162	0.754685	1	0	6.291304e+01
416.076080	1.279530	city	5	1	1.231032	1.231032	0	1	0	0	CorrectCommission	0.907542	0.735677	1	0	6.245652e+01
416.715820	19.647032	break	0	0	0.000000	1.239641	0	0	0	0	ThoughtProbe	0.857576	0.716498	1	62	62
437.002594	1.279433	city	2	0	0.000000	1.234251	0	0	0	1	OmissionError	0.888856	0.697339	1	0	6.141176e+01
438.282166	1.279748	city	8	1	1.228545	1.228545	0	1	0	0	CorrectCommission	0.921970	0.678710	1	0	6.082353e+01
439.561737	1.279393	city	4	1	1.236207	1.236207	0	1	0	0	CorrectCommission	0.877508	0.661357	1	0	6.023529e+01
440.841309	1.279763	city	5	1	1.389544	1.389544	0	1	0	0	CorrectCommission	0.012388	0.646142	1	0	5.964706e+01
442.120972	1.279558	city	8	1	1.444227	1.444227	0	1	0	0	CorrectCommission	0.329740	0.633919	1	0	5.905882e+01
443.400482	1.279466	city	1	1	1.391629	1.391629	0	1	0	0	CorrectCommission	0.024489	0.625281	1	0	5.847059e+01
444.680084	1.279692	city	3	1	1.232878	1.232878	0	1	0	0	CorrectCommission	0.896829	0.620504	1	0	5.788235e+01
445.959717	1.279584	city	7	1	1.256112	1.256112	0	1	0	0	CorrectCommission	0.761986	0.619412	1	0	5.729412e+01
447.239227	1.279436	mountain	4	0	0.000000	1.271667	1	0	0	0	CorrectOmission	0.671715	0.621496	1	0	5.670588e+01
448.518799	1.279718	city	6	1	1.297343	1.297343	0	1	0	0	CorrectCommission	0.522701	0.625977	1	0	5.611765e+01
449.805054	1.292775	city	4	1	1.350944	1.350944	0	1	0	0	CorrectCommission	0.211629	0.631981	1	0	5.552941e+01
451.091278	1.279710	city	10	1	1.236577	1.236577	0	1	0	0	CorrectCommission	0.875361	0.638754	1	0	5.494118e+01
452.370911	1.279553	city	9	1	1.502684	1.502684	0	1	0	0	CorrectCommission	0.668994	0.645841	1	0	5.435294e+01
453.650421	1.279443	city	1	1	1.604015	1.604015	0	1	0	0	CorrectCommission	1.257069	0.653278	1	0	5.376471e+01
454.930023	1.279746	city	10	1	1.497752	1.497752	0	1	0	0	CorrectCommission	0.640374	0.661627	1	0	5.317647e+01
456.209686	1.279577	city	6	1	1.494948	1.494948	0	1	0	0	CorrectCommission	0.624100	0.671949	1	0	5.258824e+01
457.489258	1.279578	city	4	1	1.559732	1.559732	0	1	0	0	CorrectCommission	1.000071	0.685623	1	0	52
458.768768	1.279431	mountain	9	0	0.000000	1.381743	1	0	0	0	CorrectOmission	0.032888	0.704078	1	0	5.141176e+01
460.048340	1.279731	city	10	1	1.240983	1.240983	0	1	0	0	CorrectCommission	0.849787	0.728475	1	0	5.082353e+01
461.327942	1.279492	city	9	1	1.417454	1.417454	0	1	0	0	CorrectCommission	0.174364	0.759341	1	0	5.023529e+01
462.607452	1.279529	city	7	1	1.497613	1.497613	0	1	0	0	CorrectCommission	0.639565	0.796340	0	0	4.964706e+01
463.887085	1.279735	city	6	1	1.505146	1.505146	0	1	0	0	CorrectCommission	0.683284	0.838088	0	0	4.905882e+01
465.166687	1.279466	city	1	1	1.468775	1.468775	0	1	0	0	CorrectCommission	0.472202	0.882182	0	0	4.847059e+01
466.446198	1.279539	city	3	1	1.497592	1.497592	0	1	0	0	CorrectCommission	0.639443	0.925405	0	0	4.788235e+01
467.725830	1.279708	city	4	1	1.249684	1.249684	0	1	0	0	CorrectCommission	0.799295	0.964077	0	0	4.729412e+01
469.005463	1.279600	city	10	1	1.125528	1.125528	0	1	0	0	CorrectCommission	1.519833	0.994583	0	0	4.670588e+01
470.285065	1.279583	city	3	1	1.152140	1.152140	0	1	0	0	CorrectCommission	1.365389	1.013845	0	0	4.611765e+01
471.564636	1.279558	city	8	1	0.985090	0.985090	0	1	0	0	CorrectCommission	2.334863	1.019830	0	0	4.552941e+01
472.844208	1.279580	city	9	1	0.969348	0.969348	0	1	0	0	CorrectCommission	2.426224	1.011795	0	0	4.494118e+01
474.123779	1.279574	city	10	1	1.129765	1.129765	0	1	0	0	CorrectCommission	1.495242	0.990401	0	0	4.435294e+01
475.403351	1.279580	city	9	1	1.444977	1.444977	0	1	0	0	CorrectCommission	0.334092	0.957554	0	0	4.376471e+01
476.682861	1.279438	city	8	1	1.418801	1.418801	0	1	0	0	CorrectCommission	0.182181	0.916039	0	0	4.317647e+01
477.962433	1.279713	city	5	1	1.258920	1.258920	0	1	0	0	CorrectCommission	0.745690	0.869044	0	0	4.258824e+01
482.520996	7.837430	break	0	0	0.000000	1.298964	0	0	0	0	ThoughtProbe	0.513294	0.819671	0	42	42
487.079468	1.279491	mountain	5	0	0.000000	1.431965	1	0	0	0	CorrectOmission	0.258577	0.770593	1	0	4.250000e+01
488.359070	1.279686	city	2	1	1.550954	1.550954	0	1	0	0	CorrectCommission	0.949130	0.723799	1	0	43
489.638611	1.279412	city	4	1	1.548963	1.548963	0	1	0	0	CorrectCommission	0.937574	0.680542	1	0	4.350000e+01
490.918182	1.279750	city	7	1	1.380516	1.380516	0	1	0	0	CorrectCommission	0.040007	0.641472	1	0	4.400000e+01
492.204468	1.292778	city	5	1	1.196892	1.196892	0	1	0	0	CorrectCommission	1.105672	0.606829	1	0	4.450000e+01
493.490692	1.279685	city	9	1	1.298370	1.298370	0	1	0	0	CorrectCommission	0.516740	0.576644	1	0	4.500000e+01
494.776978	1.292927	city	3	1	1.216284	1.216284	0	1	0	0	CorrectCommission	0.993129	0.550984	1	0	4.550000e+01
496.063232	1.279558	city	5	1	1.293757	1.293757	0	1	0	0	CorrectCommission	0.543515	0.530107	1	0	46
497.342804	1.279586	mountain	5	0	0.000000	1.346717	1	0	0	0	CorrectOmission	0.236161	0.514527	1	0	4.650000e+01
498.622406	1.279596	city	9	1	1.390830	1.390830	0	1	0	0	CorrectCommission	0.019849	0.504951	1	0	47
499.901978	1.279558	city	10	1	1.441762	1.441762	0	1	0	0	CorrectCommission	0.315433	0.502209	1	0	4.750000e+01
501.181458	1.279418	city	4	1	1.444078	1.444078	0	1	0	0	CorrectCommission	0.328876	0.507153	1	0	48
502.460968	1.279588	city	10	1	1.403643	1.403643	0	1	0	0	CorrectCommission	0.094209	0.520536	1	0	4.850000e+01
503.740631	1.279732	city	9	1	1.550995	1.550995	0	1	0	0	CorrectCommission	0.949369	0.542862	1	0	49
505.020203	1.279422	city	3	1	1.500287	1.500287	0	1	0	0	CorrectCommission	0.655082	0.574313	1	0	4.950000e+01
506.299744	1.279669	city	9	1	1.444412	1.444412	0	1	0	0	CorrectCommission	0.330813	0.614718	1	0	50
507.586060	1.292974	city	3	1	1.457503	1.457503	0	1	0	0	CorrectCommission	0.406789	0.663502	1	0	5.050000e+01
508.872375	1.279610	city	7	1	1.516256	1.516256	0	1	0	0	CorrectCommission	0.747760	0.719711	1	0	51
510.158630	1.292900	city	6	1	1.508307	1.508307	0	1	0	0	CorrectCommission	0.701626	0.782005	1	0	5.150000e+01
511.444855	1.279547	city	1	1	1.337548	1.337548	0	1	0	0	CorrectCommission	0.289373	0.848718	0	0	52
512.724426	1.279586	city	10	1	1.337454	1.337454	0	1	0	0	CorrectCommission	0.289918	0.917958	0	0	5.250000e+01
514.003967	1.279578	city	3	1	1.550837	1.550837	0	1	0	0	CorrectCommission	0.948452	0.987736	0	0	53
515.283569	1.279590	mountain	1	0	0.000000	1.717792	1	0	0	0	CorrectOmission	1.917373	1.056079	0	0	5.350000e+01
516.563171	1.279570	city	10	1	1.774587	1.774587	0	1	0	0	CorrectCommission	2.246988	1.121141	0	0	54
517.842712	1.279579	city	5	1	1.657494	1.657494	0	1	0	0	CorrectCommission	1.567437	1.181286	0	0	5.450000e+01
519.122314	1.279600	city	9	1	1.441862	1.441862	0	1	0	0	CorrectCommission	0.316015	1.235050	0	0	55
520.401917	1.279556	city	6	1	1.124276	1.124276	0	1	0	0	CorrectCommission	1.527100	1.281001	0	0	5.550000e+01
521.681458	1.279585	city	3	1	1.721359	1.721359	0	1	0	0	CorrectCommission	1.938079	1.317561	0	0	56
522.960999	1.279483	city	5	1	1.444857	1.444857	0	1	0	0	CorrectCommission	0.333396	1.342922	0	0	5.650000e+01
524.240540	1.279555	city	2	1	1.401484	1.401484	0	1	0	0	CorrectCommission	0.081682	1.355083	0	0	57
525.520081	1.279624	city	7	0	0.000000	1.026830	0	0	0	1	OmissionError	2.092627	1.351875	0	0	5.750000e+01
526.799744	1.279677	city	1	1	0.761237	0.761237	0	1	0	0	CorrectCommission	3.634000	1.331118	0	0	58
528.079285	1.279417	city	8	1	1.045046	1.045046	0	1	0	0	CorrectCommission	1.986911	1.290921	0	0	5.850000e+01
529.358887	1.279727	city	9	1	1.185989	1.185989	0	1	0	0	CorrectCommission	1.168948	1.230080	0	0	59
530.638489	1.279508	city	6	1	1.230776	1.230776	0	1	0	0	CorrectCommission	0.909023	1.148303	0	0	5.950000e+01
531.918091	1.279660	city	10	1	1.297337	1.297337	0	1	0	0	CorrectCommission	0.522735	1.046381	0	0	60
533.197693	1.279555	city	5	1	1.763964	1.763964	0	1	0	0	CorrectCommission	2.185335	0.926343	0	0	6.050000e+01
534.477295	1.279635	city	3	1	1.708963	1.708963	0	1	0	0	CorrectCommission	1.866138	0.791395	0	0	61
535.756775	1.279391	city	9	1	1.505558	1.505558	0	1	0	0	CorrectCommission	0.685671	0.645844	1	0	6.150000e+01
536.396484	13.102691	break	0	0	0.000000	1.302152	0	0	0	0	ThoughtProbe	0.494795	0.494795	1	62	62
