onset	duration	trial_type	image_type	Press	ReactionTime	ReactionTime_Interpolated	CorrectOmission	CorrectCommission	CommissionError	OmissionError	response_type	nonsmoothVarianceTimeCourse	VarianceTimeCourse	In_the_Zone	ThoughtProbe	ThoughtProbe_Interpolated
0.653181	1.279418	city	1	0	0.000000	1.679404	0	0	0	1	OmissionError	2.052358	2.052358	0	0	93
1.932750	1.279719	city	7	1	1.390157	1.390157	0	1	0	0	CorrectCommission	0.634660	1.821061	0	0	93
3.212399	1.279579	city	9	1	1.100911	1.100911	0	1	0	0	CorrectCommission	0.783038	1.598046	0	0	93
4.491987	1.279598	city	3	1	1.140780	1.140780	0	1	0	0	CorrectCommission	0.587625	1.390850	0	0	93
5.778240	1.292908	city	9	1	1.153977	1.153977	0	1	0	0	CorrectCommission	0.522943	1.205697	0	0	93
7.064474	1.279560	city	4	1	1.251093	1.251093	0	1	0	0	CorrectCommission	0.046942	1.047057	0	0	93
8.344044	1.279580	city	10	1	1.144424	1.144424	0	1	0	0	CorrectCommission	0.569766	0.917482	0	0	93
9.630257	1.292845	city	5	1	1.128034	1.128034	0	1	0	0	CorrectCommission	0.650096	0.817653	0	0	93
10.916529	1.279699	mountain	1	0	0.000000	1.148227	1	0	0	0	CorrectOmission	0.551124	0.746631	1	0	93
12.196542	1.280328	city	1	1	1.231228	1.231228	0	1	0	0	CorrectCommission	0.144310	0.702219	1	0	93
13.482701	1.291991	city	7	1	1.403260	1.403260	0	1	0	0	CorrectCommission	0.698882	0.681346	1	0	93
14.781874	1.306353	city	5	1	1.177660	1.177660	0	1	0	0	CorrectCommission	0.406865	0.680422	1	0	93
16.081419	1.292739	city	4	1	1.078640	1.078640	0	1	0	0	CorrectCommission	0.892197	0.695657	1	0	93
17.367641	1.279706	mountain	7	0	0.000000	1.164400	1	0	0	0	CorrectOmission	0.471856	0.723205	1	0	93
18.647303	1.279617	city	3	1	1.234213	1.234213	0	1	0	0	CorrectCommission	0.129676	0.759360	1	0	93
19.926908	1.279595	city	5	1	1.087353	1.087353	0	1	0	0	CorrectCommission	0.849491	0.800604	0	0	93
21.206501	1.279587	city	1	1	1.033725	1.033725	0	1	0	0	CorrectCommission	1.112339	0.843617	0	0	93
22.492735	1.292882	city	7	1	1.071499	1.071499	0	1	0	0	CorrectCommission	0.927195	0.885378	0	0	93
23.778965	1.279579	city	3	1	1.018098	1.018098	0	1	0	0	CorrectCommission	1.188933	0.923207	0	0	93
25.058556	1.279602	city	4	1	0.972459	0.972459	0	1	0	0	CorrectCommission	1.412626	0.954832	0	0	93
26.338135	1.279557	city	6	1	1.131970	1.131970	0	1	0	0	CorrectCommission	0.630805	0.978513	0	0	93
27.617661	1.279494	city	5	1	0.994370	0.994370	0	1	0	0	CorrectCommission	1.305230	0.993137	0	0	93
28.897253	1.279689	city	6	1	1.071005	1.071005	0	1	0	0	CorrectCommission	0.929616	0.998326	0	0	93
30.176876	1.279557	city	10	1	0.914075	0.914075	0	1	0	0	CorrectCommission	1.698785	0.994553	0	0	93
31.456455	1.279602	city	8	1	0.936990	0.936990	0	1	0	0	CorrectCommission	1.586472	0.983109	0	0	93
32.735954	1.279394	city	4	1	1.142607	1.142607	0	1	0	0	CorrectCommission	0.578669	0.966083	0	0	93
34.015522	1.279745	city	6	1	1.076128	1.076128	0	1	0	0	CorrectCommission	0.904509	0.946246	0	0	93
35.295097	1.279405	city	2	1	1.039524	1.039524	0	1	0	0	CorrectCommission	1.083918	0.926778	0	0	93
36.587925	1.306250	city	4	1	1.097105	1.097105	0	1	0	0	CorrectCommission	0.801693	0.910963	0	0	93
37.880928	1.279758	city	2	1	1.241039	1.241039	0	1	0	0	CorrectCommission	0.096223	0.901831	0	0	93
39.160503	1.279390	city	3	1	1.532985	1.532985	0	1	0	0	CorrectCommission	1.334711	0.901772	0	0	93
40.486717	1.373037	city	4	1	1.487612	1.487612	0	1	0	0	CorrectCommission	1.112318	0.912113	0	0	93
41.813030	1.279586	city	7	1	1.247909	1.247909	0	1	0	0	CorrectCommission	0.062547	0.932871	0	0	93
45.398525	5.891410	break	0	0	0.000000	1.288205	0	0	0	0	ThoughtProbe	0.134957	0.962625	0	93	93
48.990685	1.292908	city	5	1	1.368271	1.368271	0	1	0	0	CorrectCommission	0.527386	0.998502	0	0	9.167391e+01
50.303589	1.332902	city	3	1	1.247879	1.247879	0	1	0	0	CorrectCommission	0.062698	1.036477	0	0	9.034783e+01
51.623150	1.306216	city	8	1	0.896358	0.896358	0	1	0	0	CorrectCommission	1.785625	1.071884	0	0	8.902174e+01
52.922718	1.292926	city	6	1	0.887987	0.887987	0	1	0	0	CorrectCommission	1.826655	1.099975	0	0	8.769565e+01
54.215549	1.292733	city	9	1	0.834430	0.834430	0	1	0	0	CorrectCommission	2.089156	1.116661	0	0	8.636957e+01
55.515041	1.306251	city	5	1	0.782044	0.782044	0	1	0	0	CorrectCommission	2.345917	1.119098	0	0	8.504348e+01
56.834614	1.332891	city	4	1	1.020929	1.020929	0	1	0	0	CorrectCommission	1.175055	1.106134	0	0	8.371739e+01
58.147587	1.293060	city	7	1	0.946655	0.946655	0	1	0	0	CorrectCommission	1.539099	1.078498	0	0	8.239130e+01
59.447247	1.306258	city	9	1	0.994535	0.994535	0	1	0	0	CorrectCommission	1.304424	1.038629	0	0	8.106522e+01
60.740166	1.279580	city	10	1	0.981232	0.981232	0	1	0	0	CorrectCommission	1.369627	0.990313	0	0	7.973913e+01
62.026314	1.292715	mountain	9	1	1.209470	1.209470	0	0	1	0	CommissionError	0.250952	0.938086	0	0	7.841304e+01
63.319210	1.293077	city	8	1	1.141838	1.141838	0	1	0	0	CorrectCommission	0.582440	0.886551	0	0	7.708696e+01
64.605392	1.279296	mountain	7	0	0.000000	1.183256	1	0	0	0	CorrectOmission	0.379437	0.839730	0	0	7.576087e+01
65.898270	1.306451	mountain	6	0	0.000000	1.250234	1	0	0	0	CorrectOmission	0.051153	0.800573	0	0	7.443478e+01
67.197922	1.292852	city	7	1	1.259284	1.259284	0	1	0	0	CorrectCommission	0.006798	0.770738	1	0	7.310870e+01
68.484222	1.279748	city	5	1	1.126916	1.126916	0	1	0	0	CorrectCommission	0.655580	0.750499	1	0	7.178261e+01
69.763863	1.279531	city	10	1	1.020704	1.020704	0	1	0	0	CorrectCommission	1.176159	0.738997	1	0	7.045652e+01
71.043381	1.279507	city	7	1	1.132011	1.132011	0	1	0	0	CorrectCommission	0.630606	0.734693	1	0	6.913043e+01
72.322975	1.279676	city	9	1	1.017601	1.017601	0	1	0	0	CorrectCommission	1.191369	0.735825	1	0	6.780435e+01
73.602509	1.279399	city	6	1	1.087028	1.087028	0	1	0	0	CorrectCommission	0.851083	0.740859	1	0	6.647826e+01
74.888733	1.293045	city	2	1	1.150269	1.150269	0	1	0	0	CorrectCommission	0.541114	0.748934	1	0	6.515217e+01
76.181717	1.292924	city	7	0	0.000000	1.436258	0	0	0	1	OmissionError	0.860618	0.759966	1	0	6.382609e+01
77.474640	1.292918	city	3	1	1.625433	1.625433	0	1	0	0	CorrectCommission	1.787827	0.774598	1	0	6.250000e+01
78.774162	1.306132	city	4	1	1.398230	1.398230	0	1	0	0	CorrectCommission	0.674227	0.794023	0	0	6.117391e+01
80.080437	1.306419	city	8	1	1.261247	1.261247	0	1	0	0	CorrectCommission	0.002827	0.819611	0	0	5.984783e+01
81.379997	1.292694	mountain	3	0	0.000000	1.329931	1	0	0	0	CorrectOmission	0.339470	0.852462	0	0	5.852174e+01
82.679527	1.306368	city	6	1	1.393231	1.393231	0	1	0	0	CorrectCommission	0.649726	0.892997	0	0	5.719565e+01
83.999077	1.332730	city	10	1	1.240097	1.240097	0	1	0	0	CorrectCommission	0.100836	0.940711	0	0	5.586957e+01
85.325279	1.319686	city	9	1	1.115146	1.115146	0	1	0	0	CorrectCommission	0.713266	0.994068	0	0	5.454348e+01
86.631599	1.292949	city	1	1	1.017908	1.017908	0	1	0	0	CorrectCommission	1.189863	1.050559	0	0	5.321739e+01
87.917786	1.279424	city	10	1	1.088567	1.088567	0	1	0	0	CorrectCommission	0.843538	1.106991	0	0	5.189130e+01
89.210709	1.306415	city	7	1	1.705335	1.705335	0	1	0	0	CorrectCommission	2.179458	1.159891	0	0	5.056522e+01
90.530350	1.332875	city	5	1	1.420837	1.420837	0	1	0	0	CorrectCommission	0.785034	1.205903	0	0	4.923913e+01
91.849915	1.306257	city	8	1	2.004085	2.004085	0	1	0	0	CorrectCommission	3.643733	1.242204	0	0	4.791304e+01
93.149490	1.292890	city	3	1	1.582690	1.582690	0	1	0	0	CorrectCommission	1.578331	1.266603	0	0	4.658696e+01
94.469032	1.346194	city	9	1	1.354741	1.354741	0	1	0	0	CorrectCommission	0.461070	1.277825	0	0	4.526087e+01
95.821877	1.359503	city	10	1	1.072602	1.072602	0	1	0	0	CorrectCommission	0.921790	1.275368	0	0	4.393478e+01
97.154785	1.306314	city	1	1	1.107767	1.107767	0	1	0	0	CorrectCommission	0.749433	1.259369	0	0	4.260870e+01
98.454422	1.292959	city	10	1	1.100143	1.100143	0	1	0	0	CorrectCommission	0.786800	1.230547	0	0	4.128261e+01
99.753998	1.306185	city	2	1	1.830647	1.830647	0	1	0	0	CorrectCommission	2.793654	1.190054	0	0	3.995652e+01
101.060204	1.306236	city	3	1	1.708761	1.708761	0	1	0	0	CorrectCommission	2.196250	1.139416	0	0	3.863043e+01
102.353127	1.279602	city	5	1	1.424075	1.424075	0	1	0	0	CorrectCommission	0.800905	1.080568	0	0	3.730435e+01
103.646042	1.306234	city	8	1	1.019907	1.019907	0	1	0	0	CorrectCommission	1.180067	1.015769	0	0	3.597826e+01
104.945618	1.292911	city	6	1	1.421306	1.421306	0	1	0	0	CorrectCommission	0.787332	0.947568	0	0	3.465217e+01
106.238480	1.292812	city	4	1	1.209334	1.209334	0	1	0	0	CorrectCommission	0.251620	0.878724	0	0	3.332609e+01
110.663689	7.557615	break	0	1	1.274410	1.274410	0	0	0	0	ThoughtProbe	0.067344	0.812153	0	32	32
115.115601	1.346202	city	3	1	1.568894	1.568894	0	1	0	0	CorrectCommission	1.510713	0.750808	1	0	3.269565e+01
116.435165	1.292925	city	7	1	1.409879	1.409879	0	1	0	0	CorrectCommission	0.731324	0.697499	1	0	3.339130e+01
117.741364	1.319473	city	10	1	1.093209	1.093209	0	1	0	0	CorrectCommission	0.820788	0.654914	1	0	3.408696e+01
119.040932	1.279662	city	6	1	1.248518	1.248518	0	1	0	0	CorrectCommission	0.059566	0.625370	1	0	3.478261e+01
120.320473	1.279425	mountain	5	0	0.000000	1.252116	1	0	0	0	CorrectOmission	0.041929	0.610738	1	0	3.547826e+01
121.599968	1.279564	city	5	1	1.192504	1.192504	0	1	0	0	CorrectCommission	0.334110	0.612234	1	0	3.617391e+01
122.892952	1.306413	city	6	1	1.158180	1.158180	0	1	0	0	CorrectCommission	0.502341	0.630353	1	0	3.686957e+01
124.199196	1.306072	mountain	5	0	0.000000	1.259064	1	0	0	0	CorrectOmission	0.007874	0.664713	1	0	3.756522e+01
125.492111	1.279751	city	6	1	1.303818	1.303818	0	1	0	0	CorrectCommission	0.211479	0.714072	1	0	3.826087e+01
126.785011	1.306057	city	2	1	1.101104	1.101104	0	1	0	0	CorrectCommission	0.782094	0.776268	1	0	3.895652e+01
128.104492	1.332894	city	1	1	1.113720	1.113720	0	1	0	0	CorrectCommission	0.720256	0.848347	0	0	3.965217e+01
129.444153	1.346431	city	8	1	0.937310	0.937310	0	1	0	0	CorrectCommission	1.584902	0.926730	0	0	4.034783e+01
130.763718	1.292689	city	5	1	1.261302	1.261302	0	1	0	0	CorrectCommission	0.003093	1.007358	0	0	4.104348e+01
132.056610	1.293098	city	8	1	1.569335	1.569335	0	1	0	0	CorrectCommission	1.512875	1.085987	0	0	4.173913e+01
133.362839	1.319380	city	5	1	1.667133	1.667133	0	1	0	0	CorrectCommission	1.992213	1.158369	0	0	4.243478e+01
134.689056	1.333035	city	10	1	1.194830	1.194830	0	1	0	0	CorrectCommission	0.322706	1.220575	0	0	4.313043e+01
136.001953	1.292766	city	1	1	1.738394	1.738394	0	1	0	0	CorrectCommission	2.341492	1.269324	0	0	4.382609e+01
137.301453	1.306238	city	2	1	1.586810	1.586810	0	1	0	0	CorrectCommission	1.598521	1.302153	0	0	4.452174e+01
138.594376	1.279598	mountain	5	0	0.000000	1.606105	1	0	0	0	CorrectOmission	1.693094	1.317679	0	0	4.521739e+01
139.887375	1.306403	city	1	1	1.612260	1.612260	0	1	0	0	CorrectCommission	1.723265	1.315682	0	0	4.591304e+01
141.193604	1.306048	city	4	1	1.421257	1.421257	0	1	0	0	CorrectCommission	0.787089	1.297182	0	0	4.660870e+01
142.493088	1.292920	city	7	1	1.894258	1.894258	0	1	0	0	CorrectCommission	3.105434	1.264331	0	0	4.730435e+01
143.792740	1.306392	city	4	1	1.557962	1.557962	0	1	0	0	CorrectCommission	1.457131	1.220118	0	0	48
145.105652	1.319425	city	8	1	1.008910	1.008910	0	1	0	0	CorrectCommission	1.233967	1.168217	0	0	4.869565e+01
146.411804	1.292888	city	5	1	1.264678	1.264678	0	1	0	0	CorrectCommission	0.019642	1.112491	0	0	4.939130e+01
147.704742	1.292997	city	9	1	1.088288	1.088288	0	1	0	0	CorrectCommission	0.844909	1.056624	0	0	5.008696e+01
149.010986	1.319485	city	4	1	1.099788	1.099788	0	1	0	0	CorrectCommission	0.788542	1.003718	0	0	5.078261e+01
150.317123	1.292795	city	2	1	1.265531	1.265531	0	1	0	0	CorrectCommission	0.023823	0.956104	0	0	5.147826e+01
151.610123	1.293203	city	3	1	1.548383	1.548383	0	1	0	0	CorrectCommission	1.410181	0.915218	0	0	5.217391e+01
152.923080	1.332702	city	4	1	1.391098	1.391098	0	1	0	0	CorrectCommission	0.639271	0.881586	0	0	5.286957e+01
154.235901	1.292937	city	10	1	1.061336	1.061336	0	1	0	0	CorrectCommission	0.977011	0.855029	0	0	5.356522e+01
155.522232	1.279719	city	9	1	1.568090	1.568090	0	1	0	0	CorrectCommission	1.506772	0.834769	0	0	5.426087e+01
156.801819	1.279467	city	7	1	1.177978	1.177978	0	1	0	0	CorrectCommission	0.405308	0.819703	0	0	5.495652e+01
158.081406	1.279699	mountain	8	1	1.206792	1.206792	0	0	1	0	CommissionError	0.264079	0.808640	0	0	5.565217e+01
159.361038	1.279571	city	6	1	1.369068	1.369068	0	1	0	0	CorrectCommission	0.531294	0.800476	0	0	5.634783e+01
160.660599	1.319559	city	5	1	1.109232	1.109232	0	1	0	0	CorrectCommission	0.742251	0.794254	0	0	5.704348e+01
161.960190	1.279604	city	10	1	0.860989	0.860989	0	1	0	0	CorrectCommission	1.958980	0.789316	0	0	5.773913e+01
163.253021	1.306071	city	3	1	1.448993	1.448993	0	1	0	0	CorrectCommission	0.923035	0.785371	0	0	5.843478e+01
164.552597	1.293068	city	4	1	1.245037	1.245037	0	1	0	0	CorrectCommission	0.076627	0.782493	0	0	5.913043e+01
165.852310	1.306362	city	8	1	1.046188	1.046188	0	1	0	0	CorrectCommission	1.051255	0.781089	0	0	5.982609e+01
167.145157	1.279333	city	7	1	1.238593	1.238593	0	1	0	0	CorrectCommission	0.108210	0.781775	0	0	6.052174e+01
168.444672	1.319714	city	1	1	1.169506	1.169506	0	1	0	0	CorrectCommission	0.446832	0.785357	0	0	6.121739e+01
169.764206	1.319357	city	8	1	1.461683	1.461683	0	1	0	0	CorrectCommission	0.985232	0.792680	0	0	6.191304e+01
171.090378	1.332975	city	5	1	1.648049	1.648049	0	1	0	0	CorrectCommission	1.898678	0.804451	0	0	6.260870e+01
172.443359	1.372984	city	9	1	1.449613	1.449613	0	1	0	0	CorrectCommission	0.926073	0.821129	0	0	6.330435e+01
176.128830	5.997964	break	0	0	0.000000	1.280306	0	0	0	0	ThoughtProbe	0.096239	0.842781	0	64	64
179.780960	1.306292	city	4	1	1.184307	1.184307	0	1	0	0	CorrectCommission	0.374285	0.868908	0	0	6.402941e+01
181.080551	1.292894	city	7	1	1.205795	1.205795	0	1	0	0	CorrectCommission	0.268964	0.898301	0	0	6.405882e+01
182.366791	1.279580	city	5	1	1.425887	1.425887	0	1	0	0	CorrectCommission	0.809781	0.929088	0	0	6.408824e+01
183.659698	1.306241	city	9	1	1.557241	1.557241	0	1	0	0	CorrectCommission	1.453596	0.958832	0	0	6.411765e+01
184.959274	1.292904	city	7	1	1.332921	1.332921	0	1	0	0	CorrectCommission	0.354127	0.984738	0	0	6.414706e+01
186.285507	1.359553	city	4	1	1.425113	1.425113	0	1	0	0	CorrectCommission	0.805988	1.004088	0	0	6.417647e+01
187.611725	1.292908	mountain	5	0	0.000000	1.758360	1	0	0	0	CorrectOmission	2.439351	1.014519	0	0	6.420588e+01
188.911301	1.306240	city	2	1	1.890905	1.890905	0	1	0	0	CorrectCommission	3.089001	1.014399	0	0	6.423529e+01
190.230881	1.332919	city	5	1	1.380989	1.380989	0	1	0	0	CorrectCommission	0.589724	1.003118	0	0	6.426471e+01
191.563797	1.332900	city	1	1	1.288848	1.288848	0	1	0	0	CorrectCommission	0.138106	0.981225	0	0	6.429412e+01
192.916672	1.372868	city	4	1	1.123533	1.123533	0	1	0	0	CorrectCommission	0.672158	0.950334	0	0	6.432353e+01
194.269562	1.332901	city	8	1	0.988296	0.988296	0	1	0	0	CorrectCommission	1.335003	0.912953	0	0	6.435294e+01
195.589127	1.306211	city	4	1	0.995860	0.995860	0	1	0	0	CorrectCommission	1.297928	0.872234	0	0	6.438235e+01
196.882019	1.279585	city	1	1	1.090021	1.090021	0	1	0	0	CorrectCommission	0.836415	0.831687	0	0	6.441176e+01
198.168213	1.292814	city	4	1	1.193999	1.193999	0	1	0	0	CorrectCommission	0.326782	0.794845	0	0	6.444118e+01
199.461121	1.293001	city	7	1	1.164752	1.164752	0	1	0	0	CorrectCommission	0.470131	0.764893	1	0	6.447059e+01
200.760666	1.306074	city	1	1	1.096921	1.096921	0	1	0	0	CorrectCommission	0.802595	0.744390	1	0	6.450000e+01
202.053589	1.279780	city	6	1	1.314070	1.314070	0	1	0	0	CorrectCommission	0.261731	0.735060	1	0	6.452941e+01
203.359818	1.332689	city	2	1	1.161005	1.161005	0	1	0	0	CorrectCommission	0.488498	0.737614	1	0	6.455882e+01
204.679230	1.306138	city	1	1	1.213079	1.213079	0	1	0	0	CorrectCommission	0.233262	0.751712	1	0	6.458824e+01
205.972153	1.279698	city	8	1	1.323056	1.323056	0	1	0	0	CorrectCommission	0.305772	0.776018	1	0	6.461765e+01
207.251877	1.279736	mountain	9	0	0.000000	1.450383	1	0	0	0	CorrectOmission	0.929845	0.808376	0	0	6.464706e+01
208.531448	1.279426	city	6	1	1.442194	1.442194	0	1	0	0	CorrectCommission	0.889711	0.846030	0	0	6.467647e+01
209.811050	1.279780	city	1	1	1.145625	1.145625	0	1	0	0	CorrectCommission	0.563879	0.885949	0	0	6.470588e+01
211.097382	1.292863	city	7	1	0.969304	0.969304	0	1	0	0	CorrectCommission	1.428088	0.925127	0	0	6.473529e+01
212.403549	1.319496	city	4	1	1.039093	1.039093	0	1	0	0	CorrectCommission	1.086029	0.960829	0	0	6.476471e+01
213.723129	1.319642	city	8	1	0.837216	0.837216	0	1	0	0	CorrectCommission	2.075501	0.990875	0	0	6.479412e+01
215.022644	1.279396	city	7	1	1.519217	1.519217	0	1	0	0	CorrectCommission	1.267226	1.013663	0	0	6.482353e+01
216.342209	1.359736	city	1	0	0.000000	1.307939	0	0	0	1	OmissionError	0.231678	1.028222	0	0	6.485294e+01
217.688522	1.332889	city	3	1	0.924555	0.924555	0	1	0	0	CorrectCommission	1.647421	1.034122	0	0	6.488235e+01
219.014740	1.319554	city	6	1	1.090239	1.090239	0	1	0	0	CorrectCommission	0.835347	1.031356	0	0	6.491176e+01
220.327637	1.306215	city	2	1	1.086437	1.086437	0	1	0	0	CorrectCommission	0.853978	1.020283	0	0	6.494118e+01
221.627213	1.292947	city	10	1	1.100685	1.100685	0	1	0	0	CorrectCommission	0.784143	1.001455	0	0	6.497059e+01
222.273682	11.169654	break	0	0	0.000000	1.000275	0	0	0	0	ThoughtProbe	1.276291	0.975624	0	65	65
234.083038	1.279401	city	7	0	0.000000	0.949021	0	0	0	1	OmissionError	1.527504	0.943721	0	0	6.465000e+01
235.375854	1.306243	city	3	1	1.110740	1.110740	0	1	0	0	CorrectCommission	0.734863	0.906919	0	0	6.430000e+01
236.688858	1.319748	city	8	1	1.649247	1.649247	0	1	0	0	CorrectCommission	1.904548	0.866672	0	0	6.395000e+01
238.008453	1.319463	city	5	1	1.233264	1.233264	0	1	0	0	CorrectCommission	0.134329	0.824641	0	0	6.360000e+01
239.327927	1.319478	city	10	1	1.005801	1.005801	0	1	0	0	CorrectCommission	1.249204	0.782715	0	0	6.325000e+01
240.654144	1.332952	city	3	1	1.264748	1.264748	0	1	0	0	CorrectCommission	0.019985	0.742791	1	0	6.290000e+01
241.960480	1.279711	city	4	1	1.341733	1.341733	0	1	0	0	CorrectCommission	0.397314	0.706770	1	0	6.255000e+01
243.253372	1.306081	city	3	1	1.399710	1.399710	0	1	0	0	CorrectCommission	0.681479	0.676393	1	0	6.220000e+01
244.566254	1.319673	mountain	7	0	0.000000	1.344349	1	0	0	0	CorrectOmission	0.410136	0.653189	1	0	6.185000e+01
245.872513	1.292840	city	5	1	1.297927	1.297927	0	1	0	0	CorrectCommission	0.182607	0.638430	1	0	6.150000e+01
247.172028	1.306191	city	7	1	1.382722	1.382722	0	1	0	0	CorrectCommission	0.598216	0.633118	1	0	6.115000e+01
248.484970	1.319703	city	2	1	1.508862	1.508862	0	1	0	0	CorrectCommission	1.216472	0.637959	1	0	6.080000e+01
249.804520	1.319402	city	6	1	1.421357	1.421357	0	1	0	0	CorrectCommission	0.787579	0.653294	1	0	6.045000e+01
251.157333	1.386210	city	1	1	1.220137	1.220137	0	1	0	0	CorrectCommission	0.198670	0.679053	1	0	6.010000e+01
252.503555	1.306233	mountain	8	0	0.000000	1.263477	1	0	0	0	CorrectOmission	0.013754	0.714571	1	0	5.975000e+01
253.796539	1.279751	mountain	2	0	0.000000	1.402013	1	0	0	0	CorrectOmission	0.692770	0.758443	1	0	5.940000e+01
255.082870	1.292898	city	3	1	1.486384	1.486384	0	1	0	0	CorrectCommission	1.106300	0.808410	0	0	5.905000e+01
256.389038	1.319421	city	4	1	1.367226	1.367226	0	1	0	0	CorrectCommission	0.522263	0.861295	0	0	5.870000e+01
257.721924	1.346396	city	2	1	1.132855	1.132855	0	1	0	0	CorrectCommission	0.626467	0.913182	0	0	5.835000e+01
259.054901	1.319544	city	5	1	1.272299	1.272299	0	1	0	0	CorrectCommission	0.056994	0.959638	0	0	58
260.361145	1.292905	city	9	1	1.404889	1.404889	0	1	0	0	CorrectCommission	0.706867	0.996175	0	0	5.765000e+01
261.647308	1.279433	city	5	1	1.612036	1.612036	0	1	0	0	CorrectCommission	1.722166	1.018800	0	0	5.730000e+01
262.960114	1.346213	city	2	1	1.884604	1.884604	0	1	0	0	CorrectCommission	3.058116	1.024583	0	0	5.695000e+01
264.273102	1.279738	city	9	1	1.893686	1.893686	0	1	0	0	CorrectCommission	3.102628	1.012186	0	0	5.660000e+01
265.572662	1.319403	city	10	0	0.000000	1.471086	0	0	0	1	OmissionError	1.031322	0.982092	0	0	5.625000e+01
266.905579	1.346407	city	9	1	1.139937	1.139937	0	1	0	0	CorrectCommission	0.591756	0.936706	0	0	5.590000e+01
268.218567	1.279581	city	3	1	1.423368	1.423368	0	1	0	0	CorrectCommission	0.797439	0.879915	0	0	5.555000e+01
269.531494	1.346293	city	8	1	1.394548	1.394548	0	1	0	0	CorrectCommission	0.656179	0.816650	0	0	5.520000e+01
270.857635	1.305981	city	2	1	1.209863	1.209863	0	1	0	0	CorrectCommission	0.249027	0.752216	1	0	5.485000e+01
272.163757	1.306262	city	8	1	1.262788	1.262788	0	1	0	0	CorrectCommission	0.010377	0.691620	1	0	5.450000e+01
273.476746	1.319709	city	9	1	1.221979	1.221979	0	1	0	0	CorrectCommission	0.189643	0.638996	1	0	5.415000e+01
274.776337	1.279437	city	4	1	1.203725	1.203725	0	1	0	0	CorrectCommission	0.279108	0.597220	1	0	5.380000e+01
276.075867	1.319617	city	10	1	1.117417	1.117417	0	1	0	0	CorrectCommission	0.702138	0.567760	1	0	5.345000e+01
277.395416	1.319487	city	2	1	1.132870	1.132870	0	1	0	0	CorrectCommission	0.626394	0.550691	1	0	5.310000e+01
278.701691	1.293075	city	7	1	1.244944	1.244944	0	1	0	0	CorrectCommission	0.077081	0.544955	1	0	5.275000e+01
280.014679	1.332915	city	6	1	1.292105	1.292105	0	1	0	0	CorrectCommission	0.154071	0.548666	1	0	5.240000e+01
281.340820	1.319379	city	2	1	1.252194	1.252194	0	1	0	0	CorrectCommission	0.041546	0.559474	1	0	5.205000e+01
282.647064	1.293093	city	4	1	1.028036	1.028036	0	1	0	0	CorrectCommission	1.140225	0.574940	1	0	5.170000e+01
283.959961	1.332711	city	2	1	0.929532	0.929532	0	1	0	0	CorrectCommission	1.623027	0.592814	1	0	5.135000e+01
284.626312	11.969445	break	0	0	0.000000	1.187934	0	0	0	0	ThoughtProbe	0.356506	0.611278	1	51	51
297.248871	1.306215	city	9	1	1.434010	1.434010	0	1	0	0	CorrectCommission	0.849598	0.629021	1	0	5.041176e+01
298.595154	1.386350	city	2	1	1.298527	1.298527	0	1	0	0	CorrectCommission	0.185547	0.645154	1	0	4.982353e+01
299.948120	1.319563	city	1	1	1.048151	1.048151	0	1	0	0	CorrectCommission	1.041633	0.659116	1	0	4.923529e+01
301.247620	1.279446	mountain	6	0	0.000000	1.196005	1	0	0	0	CorrectOmission	0.316947	0.670470	1	0	4.864706e+01
302.527191	1.279705	city	5	1	1.391595	1.391595	0	1	0	0	CorrectCommission	0.641705	0.678789	1	0	4.805882e+01
303.806854	1.279604	city	8	1	1.284424	1.284424	0	1	0	0	CorrectCommission	0.116426	0.683520	1	0	4.747059e+01
305.152985	1.412683	city	1	1	1.120226	1.120226	0	1	0	0	CorrectCommission	0.688368	0.684042	1	0	4.688235e+01
306.565887	1.413087	city	2	1	0.981461	0.981461	0	1	0	0	CorrectCommission	1.368503	0.679666	1	0	4.629412e+01
307.925476	1.306117	city	4	1	0.957498	0.957498	0	1	0	0	CorrectCommission	1.485953	0.669759	1	0	4.570588e+01
309.225037	1.293001	city	9	1	1.099661	1.099661	0	1	0	0	CorrectCommission	0.789164	0.653908	1	0	4.511765e+01
310.517944	1.292806	city	10	1	1.209385	1.209385	0	1	0	0	CorrectCommission	0.251369	0.632039	1	0	4.452941e+01
311.824097	1.319496	city	2	1	1.156516	1.156516	0	1	0	0	CorrectCommission	0.510496	0.604496	1	0	4.394118e+01
313.130371	1.293076	city	10	1	1.319949	1.319949	0	1	0	0	CorrectCommission	0.290546	0.572051	1	0	4.335294e+01
314.443359	1.332873	city	5	1	1.532020	1.532020	0	1	0	0	CorrectCommission	1.329978	0.535896	1	0	4.276471e+01
315.782928	1.346295	city	2	1	1.380364	1.380364	0	1	0	0	CorrectCommission	0.586659	0.497538	1	0	4.217647e+01
317.135742	1.359323	city	1	1	1.186891	1.186891	0	1	0	0	CorrectCommission	0.361618	0.458744	1	0	4.158824e+01
318.475281	1.319740	city	2	1	1.219636	1.219636	0	1	0	0	CorrectCommission	0.201125	0.421351	1	0	41
319.788269	1.306222	city	9	1	1.329009	1.329009	0	1	0	0	CorrectCommission	0.334950	0.387109	1	0	4.041176e+01
321.107758	1.332801	city	6	1	1.315035	1.315035	0	1	0	0	CorrectCommission	0.266461	0.357562	1	0	3.982353e+01
322.434021	1.319732	city	10	1	1.257045	1.257045	0	1	0	0	CorrectCommission	0.017769	0.333858	1	0	3.923529e+01
323.740326	1.292837	mountain	3	0	0.000000	1.268297	1	0	0	0	CorrectOmission	0.037380	0.316703	1	0	3.864706e+01
325.059875	1.346269	city	5	1	1.273172	1.273172	0	1	0	0	CorrectCommission	0.061273	0.306325	1	0	3.805882e+01
326.372772	1.279537	city	4	1	1.196050	1.196050	0	1	0	0	CorrectCommission	0.316726	0.302484	1	0	3.747059e+01
327.672333	1.319557	city	10	1	1.174038	1.174038	0	1	0	0	CorrectCommission	0.424618	0.304551	1	0	3.688235e+01
328.971802	1.279418	city	1	1	1.261391	1.261391	0	1	0	0	CorrectCommission	0.003533	0.311610	1	0	3.629412e+01
330.284698	1.346341	city	2	1	1.167079	1.167079	0	1	0	0	CorrectCommission	0.458724	0.322617	1	0	3.570588e+01
331.610962	1.306183	city	8	1	1.140327	1.140327	0	1	0	0	CorrectCommission	0.589844	0.336448	1	0	3.511765e+01
332.937134	1.346165	city	3	1	1.302895	1.302895	0	1	0	0	CorrectCommission	0.206958	0.352049	1	0	3.452941e+01
334.270081	1.319741	city	1	1	1.352810	1.352810	0	1	0	0	CorrectCommission	0.451608	0.368496	1	0	3.394118e+01
335.596313	1.332750	city	2	1	1.273371	1.273371	0	1	0	0	CorrectCommission	0.062250	0.385020	1	0	3.335294e+01
336.909149	1.292879	city	8	1	1.377081	1.377081	0	1	0	0	CorrectCommission	0.570568	0.401054	1	0	3.276471e+01
338.208679	1.306232	city	4	1	1.402937	1.402937	0	1	0	0	CorrectCommission	0.697296	0.416219	1	0	3.217647e+01
339.508362	1.293083	city	7	1	1.311561	1.311561	0	1	0	0	CorrectCommission	0.249430	0.430292	1	0	3.158824e+01
343.620331	6.930905	break	0	0	0.000000	1.354272	0	0	0	0	ThoughtProbe	0.458774	0.443215	1	31	31
347.725677	1.279734	city	5	1	1.394988	1.394988	0	1	0	0	CorrectCommission	0.658339	0.455042	1	0	3.112500e+01
349.011993	1.292923	city	1	1	1.297626	1.297626	0	1	0	0	CorrectCommission	0.181134	0.465900	1	0	3.125000e+01
350.331482	1.346031	city	6	1	1.220380	1.220380	0	1	0	0	CorrectCommission	0.197478	0.476010	1	0	3.137500e+01
351.664368	1.319755	city	2	1	0.937835	0.937835	0	1	0	0	CorrectCommission	1.582329	0.485615	1	0	3.150000e+01
352.984009	1.319539	city	7	1	1.271449	1.271449	0	1	0	0	CorrectCommission	0.052829	0.494925	1	0	3.162500e+01
354.296814	1.306072	city	1	1	1.183064	1.183064	0	1	0	0	CorrectCommission	0.380379	0.504155	1	0	3.175000e+01
355.623077	1.346476	city	7	1	1.290309	1.290309	0	1	0	0	CorrectCommission	0.145267	0.513414	1	0	3.187500e+01
356.955994	1.319315	city	6	1	1.167514	1.167514	0	1	0	0	CorrectCommission	0.456593	0.522725	1	0	32
358.268768	1.306235	city	8	1	1.184656	1.184656	0	1	0	0	CorrectCommission	0.372572	0.532034	1	0	3.212500e+01
359.561768	1.279761	city	7	1	1.432996	1.432996	0	1	0	0	CorrectCommission	0.844627	0.541247	1	0	3.225000e+01
360.847992	1.292729	city	6	1	1.553217	1.553217	0	1	0	0	CorrectCommission	1.433872	0.550218	1	0	3.237500e+01
362.140900	1.293065	city	1	1	1.355966	1.355966	0	1	0	0	CorrectCommission	0.467077	0.558811	1	0	3.250000e+01
363.467133	1.359397	mountain	7	0	0.000000	1.258959	1	0	0	0	CorrectOmission	0.008390	0.566956	1	0	3.262500e+01
364.799957	1.306282	city	8	1	1.253632	1.253632	0	1	0	0	CorrectCommission	0.034499	0.574626	1	0	3.275000e+01
366.092896	1.279543	mountain	5	0	0.000000	1.331423	1	0	0	0	CorrectOmission	0.346784	0.581849	1	0	3.287500e+01
367.372437	1.279585	city	1	1	1.466223	1.466223	0	1	0	0	CorrectCommission	1.007483	0.588726	1	0	33
368.658752	1.293053	city	9	1	1.631920	1.631920	0	1	0	0	CorrectCommission	1.819624	0.595433	1	0	3.312500e+01
369.985046	1.359522	city	1	1	1.248759	1.248759	0	1	0	0	CorrectCommission	0.058381	0.602198	1	0	3.325000e+01
371.317871	1.306103	city	6	1	1.394887	1.394887	0	1	0	0	CorrectCommission	0.657844	0.609307	1	0	3.337500e+01
372.617462	1.293124	city	9	1	1.337794	1.337794	0	1	0	0	CorrectCommission	0.378009	0.616960	1	0	3.350000e+01
373.943726	1.359347	city	4	1	1.249324	1.249324	0	1	0	0	CorrectCommission	0.055613	0.625260	1	0	3.362500e+01
375.269928	1.293056	city	9	1	1.354621	1.354621	0	1	0	0	CorrectCommission	0.460486	0.634118	1	0	3.375000e+01
376.582916	1.332926	mountain	8	0	0.000000	1.431225	1	0	0	0	CorrectOmission	0.835949	0.643202	1	0	3.387500e+01
377.895752	1.292745	city	3	1	1.464154	1.464154	0	1	0	0	CorrectCommission	0.997343	0.651968	1	0	34
379.188599	1.292981	city	10	1	1.438424	1.438424	0	1	0	0	CorrectCommission	0.871234	0.659688	1	0	3.412500e+01
380.488251	1.306305	city	7	1	1.458243	1.458243	0	1	0	0	CorrectCommission	0.968371	0.665484	1	0	3.425000e+01
381.827728	1.372677	city	9	1	1.249129	1.249129	0	1	0	0	CorrectCommission	0.056571	0.668469	1	0	3.437500e+01
383.173889	1.319620	city	4	1	1.158410	1.158410	0	1	0	0	CorrectCommission	0.501215	0.667849	1	0	3.450000e+01
384.493561	1.319727	city	2	1	1.003415	1.003415	0	1	0	0	CorrectCommission	1.260899	0.662995	1	0	3.462500e+01
385.819885	1.332903	city	8	1	1.193238	1.193238	0	1	0	0	CorrectCommission	0.330511	0.653547	1	0	3.475000e+01
387.159363	1.346060	city	10	1	1.102994	1.102994	0	1	0	0	CorrectCommission	0.772828	0.639614	1	0	3.487500e+01
388.472260	1.279723	city	7	1	1.447926	1.447926	0	1	0	0	CorrectCommission	0.917806	0.621719	1	0	35
389.778473	1.332732	city	3	1	1.539569	1.539569	0	1	0	0	CorrectCommission	1.366979	0.600851	1	0	3.512500e+01
391.118042	1.346397	city	4	1	1.415467	1.415467	0	1	0	0	CorrectCommission	0.758711	0.578423	1	0	3.525000e+01
392.444458	1.306429	city	2	1	1.253811	1.253811	0	1	0	0	CorrectCommission	0.033621	0.556173	1	0	3.537500e+01
393.764008	1.332694	city	4	1	1.337551	1.337551	0	1	0	0	CorrectCommission	0.376817	0.535955	1	0	3.550000e+01
395.083405	1.306069	city	5	1	1.270547	1.270547	0	1	0	0	CorrectCommission	0.048407	0.519512	1	0	3.562500e+01
396.402985	1.333109	city	7	1	1.273421	1.273421	0	1	0	0	CorrectCommission	0.062494	0.508300	1	0	3.575000e+01
397.709290	1.279529	city	3	1	1.407959	1.407959	0	1	0	0	CorrectCommission	0.721913	0.503285	1	0	3.587500e+01
398.349060	8.503890	break	0	0	0.000000	1.375998	0	0	0	0	ThoughtProbe	0.565263	0.504872	1	36	36
407.519409	1.332887	mountain	10	1	1.272647	1.272647	0	0	1	0	CommissionError	0.058702	0.512846	1	0	3.587500e+01
408.885529	1.399372	city	8	1	1.193014	1.193014	0	1	0	0	CorrectCommission	0.331611	0.526374	1	0	3.575000e+01
410.238434	1.306418	city	2	1	1.080292	1.080292	0	1	0	0	CorrectCommission	0.884097	0.544095	1	0	3.562500e+01
411.537994	1.292727	city	8	1	1.457885	1.457885	0	1	0	0	CorrectCommission	0.966617	0.564201	1	0	3.550000e+01
412.844116	1.319501	city	2	1	1.188971	1.188971	0	1	0	0	CorrectCommission	0.351422	0.584639	1	0	3.537500e+01
414.143707	1.279665	city	4	1	1.291565	1.291565	0	1	0	0	CorrectCommission	0.151425	0.603267	1	0	3.525000e+01
415.463287	1.359522	city	9	1	1.133599	1.133599	0	1	0	0	CorrectCommission	0.622823	0.618075	1	0	3.512500e+01
416.789490	1.292911	city	1	1	1.137533	1.137533	0	1	0	0	CorrectCommission	0.603541	0.627398	1	0	35
418.109161	1.346410	city	5	1	1.265160	1.265160	0	1	0	0	CorrectCommission	0.022006	0.630195	1	0	3.487500e+01
419.442139	1.319539	city	7	1	1.752814	1.752814	0	1	0	0	CorrectCommission	2.412169	0.626203	1	0	3.475000e+01
420.761688	1.319548	city	9	1	1.594772	1.594772	0	1	0	0	CorrectCommission	1.637548	0.615955	1	0	3.462500e+01
422.094513	1.346129	mountain	1	0	0.000000	1.415183	1	0	0	0	CorrectOmission	0.757320	0.600900	1	0	3.450000e+01
423.427307	1.319471	city	8	1	1.266470	1.266470	0	1	0	0	CorrectCommission	0.028426	0.583111	1	0	3.437500e+01
424.760223	1.346355	city	10	1	1.201055	1.201055	0	1	0	0	CorrectCommission	0.292197	0.565033	1	0	3.425000e+01
426.159882	1.452955	city	5	1	1.278730	1.278730	0	1	0	0	CorrectCommission	0.088516	0.549063	1	0	3.412500e+01
427.546051	1.319381	city	1	1	1.262338	1.262338	0	1	0	0	CorrectCommission	0.008173	0.537252	1	0	34
428.872253	1.332989	city	8	1	1.261203	1.261203	0	1	0	0	CorrectCommission	0.002612	0.531008	1	0	3.387500e+01
430.178497	1.279493	city	3	1	1.299572	1.299572	0	1	0	0	CorrectCommission	0.190671	0.530954	1	0	3.375000e+01
431.518005	1.399535	mountain	9	0	0.000000	1.107382	1	0	0	0	CorrectOmission	0.751323	0.536904	1	0	3.362500e+01
432.884247	1.332955	city	10	1	1.003257	1.003257	0	1	0	0	CorrectCommission	1.261676	0.548027	1	0	3.350000e+01
434.190491	1.279518	city	5	1	1.305823	1.305823	0	1	0	0	CorrectCommission	0.221307	0.563019	1	0	3.337500e+01
435.490112	1.319726	city	3	1	1.468103	1.468103	0	1	0	0	CorrectCommission	1.016701	0.580378	1	0	3.325000e+01
436.822998	1.346064	city	5	1	1.315932	1.315932	0	1	0	0	CorrectCommission	0.270855	0.598565	1	0	3.312500e+01
438.155914	1.319743	city	6	1	1.488718	1.488718	0	1	0	0	CorrectCommission	1.117743	0.616220	1	0	33
439.495453	1.359379	city	7	1	1.329223	1.329223	0	1	0	0	CorrectCommission	0.335998	0.632180	1	0	3.287500e+01
440.848358	1.346410	city	1	1	1.169758	1.169758	0	1	0	0	CorrectCommission	0.445596	0.645603	1	0	3.275000e+01
442.174591	1.306047	city	9	1	1.196299	1.196299	0	1	0	0	CorrectCommission	0.315509	0.655931	1	0	3.262500e+01
443.487488	1.319731	city	1	1	1.044425	1.044425	0	1	0	0	CorrectCommission	1.059897	0.662918	1	0	3.250000e+01
444.827026	1.359386	city	10	1	1.104152	1.104152	0	1	0	0	CorrectCommission	0.767153	0.666608	1	0	3.237500e+01
446.159943	1.306420	city	6	1	1.427837	1.427837	0	1	0	0	CorrectCommission	0.819341	0.667363	1	0	3.225000e+01
447.486176	1.346066	city	7	1	1.573907	1.573907	0	1	0	0	CorrectCommission	1.535280	0.665845	1	0	3.212500e+01
448.872375	1.426325	city	5	1	1.295234	1.295234	0	1	0	0	CorrectCommission	0.169409	0.662936	1	0	32
450.271912	1.372731	city	2	1	1.036436	1.036436	0	1	0	0	CorrectCommission	1.099050	0.659774	1	0	3.187500e+01
451.624786	1.333058	city	5	1	1.240821	1.240821	0	1	0	0	CorrectCommission	0.097291	0.657567	1	0	3.175000e+01
452.984314	1.385982	city	9	1	1.299342	1.299342	0	1	0	0	CorrectCommission	0.189543	0.657576	1	0	3.162500e+01
454.350525	1.346450	city	8	1	1.254679	1.254679	0	1	0	0	CorrectCommission	0.029366	0.660924	1	0	3.150000e+01
455.670197	1.292896	city	9	1	1.480544	1.480544	0	1	0	0	CorrectCommission	1.077679	0.668539	1	0	3.137500e+01
457.003021	1.372730	city	1	1	1.343090	1.343090	0	1	0	0	CorrectCommission	0.403967	0.681044	1	0	3.125000e+01
458.329163	1.279581	city	10	1	1.611600	1.611600	0	1	0	0	CorrectCommission	1.720029	0.698767	1	0	3.112500e+01
458.968964	13.035739	break	0	0	0.000000	1.460437	0	0	0	0	ThoughtProbe	0.979124	0.721543	1	31	31
472.677826	1.346246	city	10	1	1.222454	1.222454	0	1	0	0	CorrectCommission	0.187312	0.748750	1	0	3.073913e+01
474.030701	1.359499	city	2	1	1.230507	1.230507	0	1	0	0	CorrectCommission	0.147843	0.779183	0	0	3.047826e+01
475.390259	1.359637	city	9	1	1.160874	1.160874	0	1	0	0	CorrectCommission	0.489136	0.811071	0	0	3.021739e+01
476.743225	1.346263	city	1	1	1.195373	1.195373	0	1	0	0	CorrectCommission	0.320046	0.842143	0	0	2.995652e+01
478.096130	1.359578	city	2	1	1.101302	1.101302	0	1	0	0	CorrectCommission	0.781122	0.869832	0	0	2.969565e+01
479.442383	1.332933	city	3	1	1.021028	1.021028	0	1	0	0	CorrectCommission	1.174573	0.891539	0	0	2.943478e+01
480.768646	1.319566	city	6	1	0.961264	0.961264	0	1	0	0	CorrectCommission	1.467494	0.905036	0	0	2.917391e+01
482.094940	1.333013	city	2	1	0.782644	0.782644	0	1	0	0	CorrectCommission	2.342977	0.908785	0	0	2.891304e+01
483.414490	1.306119	mountain	4	0	0.000000	0.885116	1	0	0	0	CorrectOmission	1.840725	0.902207	0	0	2.865217e+01
484.720581	1.306050	mountain	9	0	0.000000	1.119575	1	0	0	0	CorrectOmission	0.691560	0.885823	0	0	2.839130e+01
486.013397	1.279578	city	1	1	1.336914	1.336914	0	1	0	0	CorrectCommission	0.373697	0.861210	0	0	2.813043e+01
487.312958	1.319568	city	4	1	1.388028	1.388028	0	1	0	0	CorrectCommission	0.624224	0.830755	0	0	2.786957e+01
488.680756	1.416006	city	2	1	1.156931	1.156931	0	1	0	0	CorrectCommission	0.508466	0.797344	0	0	2.760870e+01
490.053680	1.329853	city	8	1	1.052960	1.052960	0	1	0	0	CorrectCommission	1.018063	0.764059	1	0	2.734783e+01
491.371765	1.306300	city	7	1	1.113982	1.113982	0	1	0	0	CorrectCommission	0.718974	0.733772	1	0	2.708696e+01
492.664703	1.279601	city	6	1	1.284009	1.284009	0	1	0	0	CorrectCommission	0.114388	0.708963	1	0	2.682609e+01
493.970947	1.332861	city	2	1	1.263231	1.263231	0	1	0	0	CorrectCommission	0.012548	0.691480	1	0	2.656522e+01
495.350494	1.426214	city	4	1	1.572140	1.572140	0	1	0	0	CorrectCommission	1.526619	0.682503	1	0	2.630435e+01
496.776703	1.426221	city	9	1	1.208035	1.208035	0	1	0	0	CorrectCommission	0.257983	0.682439	1	0	2.604348e+01
498.142822	1.306047	mountain	9	0	0.000000	1.124318	1	0	0	0	CorrectOmission	0.668311	0.691096	1	0	2.578261e+01
499.475739	1.359762	city	10	1	1.209243	1.209243	0	1	0	0	CorrectCommission	0.252065	0.707655	1	0	2.552174e+01
500.822052	1.332852	city	1	1	1.351065	1.351065	0	1	0	0	CorrectCommission	0.443056	0.730829	1	0	2.526087e+01
502.154938	1.332910	city	7	1	1.554234	1.554234	0	1	0	0	CorrectCommission	1.438856	0.758959	1	0	25
503.474487	1.306223	city	1	1	1.369815	1.369815	0	1	0	0	CorrectCommission	0.534957	0.790094	0	0	2.473913e+01
504.813965	1.372746	city	5	1	1.336968	1.336968	0	1	0	0	CorrectCommission	0.373959	0.822166	0	0	2.447826e+01
506.200165	1.399604	city	8	1	1.040950	1.040950	0	1	0	0	CorrectCommission	1.076928	0.853090	0	0	2.421739e+01
507.566406	1.332891	city	10	1	1.124317	1.124317	0	1	0	0	CorrectCommission	0.668316	0.880904	0	0	2.395652e+01
508.879333	1.293005	city	8	1	1.031890	1.031890	0	1	0	0	CorrectCommission	1.121332	0.903961	0	0	2.369565e+01
510.172302	1.292903	city	4	1	0.990125	0.990125	0	1	0	0	CorrectCommission	1.326038	0.921059	0	0	2.343478e+01
511.465179	1.292878	mountain	6	0	0.000000	0.924603	1	0	0	0	CorrectOmission	1.647185	0.931562	0	0	2.317391e+01
512.758057	1.292898	city	2	1	1.025102	1.025102	0	1	0	0	CorrectCommission	1.154605	0.935480	0	0	2.291304e+01
514.044312	1.279523	city	10	1	1.481400	1.481400	0	1	0	0	CorrectCommission	1.081874	0.933523	0	0	2.265217e+01
515.350525	1.332898	city	7	1	1.430179	1.430179	0	1	0	0	CorrectCommission	0.830820	0.927004	0	0	2.239130e+01
516.723328	1.412784	city	10	1	1.188912	1.188912	0	1	0	0	CorrectCommission	0.351713	0.917767	0	0	2.213043e+01
518.076294	1.293096	city	5	1	1.445001	1.445001	0	1	0	0	CorrectCommission	0.903469	0.908051	0	0	2.186957e+01
519.402588	1.359542	city	2	1	1.280191	1.280191	0	1	0	0	CorrectCommission	0.095677	0.900307	0	0	2.160870e+01
520.728760	1.292723	city	3	1	1.657531	1.657531	0	1	0	0	CorrectCommission	1.945154	0.897149	0	0	2.134783e+01
522.048279	1.346411	city	9	1	1.498331	1.498331	0	1	0	0	CorrectCommission	1.164858	0.901071	0	0	2.108696e+01
523.414612	1.386210	city	6	1	1.204040	1.204040	0	1	0	0	CorrectCommission	0.277568	0.914401	0	0	2.082609e+01
524.767517	1.319543	city	9	1	1.060085	1.060085	0	1	0	0	CorrectCommission	0.983141	0.938998	0	0	2.056522e+01
526.087036	1.319595	city	7	1	1.155484	1.155484	0	1	0	0	CorrectCommission	0.515555	0.976058	0	0	2.030435e+01
527.406677	1.319598	city	1	1	1.066217	1.066217	0	1	0	0	CorrectCommission	0.953087	1.025922	0	0	2.004348e+01
528.732788	1.332672	city	8	1	1.174915	1.174915	0	1	0	0	CorrectCommission	0.420320	1.087885	0	0	1.978261e+01
530.058960	1.319629	city	3	1	1.209625	1.209625	0	1	0	0	CorrectCommission	0.250194	1.160184	0	0	1.952174e+01
531.398621	1.359677	city	5	1	1.100097	1.100097	0	1	0	0	CorrectCommission	0.787026	1.240028	0	0	1.926087e+01
532.078430	11.329767	break	0	0	0.000000	0.990570	0	0	0	0	ThoughtProbe	1.323858	1.323858	0	19	19
