onset	duration	trial_type	image_type	Press	ReactionTime	ReactionTime_Interpolated	CorrectOmission	CorrectCommission	CommissionError	OmissionError	response_type	nonsmoothVarianceTimeCourse	VarianceTimeCourse	In_the_Zone	ThoughtProbe	ThoughtProbe_Interpolated
0.659598	1.292906	city	10	1	1.273122	1.273122	0	1	0	0	CorrectCommission	0.205176	0.205176	1	0	54
1.945833	1.279565	city	8	1	1.285403	1.285403	0	1	0	0	CorrectCommission	0.156519	0.244751	1	0	54
3.225415	1.279598	city	2	1	1.132321	1.132321	0	1	0	0	CorrectCommission	0.763035	0.283380	1	0	54
4.504997	1.279568	city	7	1	1.234488	1.234488	0	1	0	0	CorrectCommission	0.358244	0.320157	1	0	54
5.784564	1.279564	city	4	1	1.444473	1.444473	0	1	0	0	CorrectCommission	0.473720	0.354299	1	0	54
7.064056	1.279423	city	1	1	1.340361	1.340361	0	1	0	0	CorrectCommission	0.061226	0.385135	1	0	54
8.343642	1.279749	city	4	1	1.501823	1.501823	0	1	0	0	CorrectCommission	0.700944	0.412143	1	0	54
9.623307	1.279583	mountain	3	0	0.000000	1.386561	1	0	0	0	CorrectOmission	0.244273	0.434989	1	0	54
10.902834	1.279471	city	7	1	1.194713	1.194713	0	1	0	0	CorrectCommission	0.515834	0.453571	1	0	54
12.182414	1.279689	city	10	1	1.126417	1.126417	0	1	0	0	CorrectCommission	0.786424	0.468021	1	0	54
13.468637	1.292756	city	2	1	1.178828	1.178828	0	1	0	0	CorrectCommission	0.578769	0.478746	1	0	54
14.754813	1.279597	city	1	1	1.136792	1.136792	0	1	0	0	CorrectCommission	0.745319	0.486446	1	0	54
16.034393	1.279561	city	6	1	1.462749	1.462749	0	1	0	0	CorrectCommission	0.546131	0.492038	1	0	54
17.314037	1.279730	city	7	1	1.345323	1.345323	0	1	0	0	CorrectCommission	0.080885	0.496614	1	0	54
18.593678	1.279550	mountain	9	0	0.000000	1.453801	1	0	0	0	CorrectOmission	0.510678	0.501350	1	0	54
19.879910	1.292913	city	8	1	1.514815	1.514815	0	1	0	0	CorrectCommission	0.752419	0.507334	1	0	54
21.166088	1.279445	city	1	1	1.254999	1.254999	0	1	0	0	CorrectCommission	0.276980	0.515492	1	0	54
22.445681	1.279741	mountain	9	0	0.000000	1.174947	1	0	0	0	CorrectOmission	0.594146	0.526432	1	0	54
23.725332	1.279561	city	4	1	1.199244	1.199244	0	1	0	0	CorrectCommission	0.497882	0.540360	1	0	54
25.004820	1.279413	city	7	1	1.252473	1.252473	0	1	0	0	CorrectCommission	0.286990	0.557014	1	0	54
26.284325	1.279597	city	6	1	1.338625	1.338625	0	1	0	0	CorrectCommission	0.054347	0.575732	1	0	54
27.563992	1.279736	city	3	1	1.283035	1.283035	0	1	0	0	CorrectCommission	0.165901	0.595544	1	0	54
28.843632	1.279543	city	10	1	1.499026	1.499026	0	1	0	0	CorrectCommission	0.689862	0.615316	1	0	54
30.123154	1.279504	city	7	1	1.772902	1.772902	0	1	0	0	CorrectCommission	1.774964	0.633992	1	0	54
31.402752	1.279692	city	3	1	1.687107	1.687107	0	1	0	0	CorrectCommission	1.435044	0.650736	1	0	54
32.682297	1.279396	city	6	1	1.300990	1.300990	0	1	0	0	CorrectCommission	0.094761	0.665139	1	0	54
33.961876	1.279765	city	1	1	1.142982	1.142982	0	1	0	0	CorrectCommission	0.720794	0.677250	1	0	54
35.241547	1.279577	city	2	1	1.248662	1.248662	0	1	0	0	CorrectCommission	0.302088	0.687493	1	0	54
36.521126	1.279576	city	6	1	1.183269	1.183269	0	1	0	0	CorrectCommission	0.561177	0.696611	1	0	54
37.800694	1.279565	city	7	1	1.133237	1.133237	0	1	0	0	CorrectCommission	0.759404	0.705437	1	0	54
39.080231	1.279506	city	8	1	1.693371	1.693371	0	1	0	0	CorrectCommission	1.459862	0.714705	1	0	54
40.359734	1.279497	city	2	1	1.505519	1.505519	0	1	0	0	CorrectCommission	0.715585	0.724840	1	0	54
41.646015	1.293068	city	5	1	1.329417	1.329417	0	1	0	0	CorrectCommission	0.017866	0.735869	1	0	54
42.939007	1.292914	city	7	1	1.425701	1.425701	0	1	0	0	CorrectCommission	0.399347	0.747316	1	0	54
44.238541	1.306153	city	9	1	1.274800	1.274800	0	1	0	0	CorrectCommission	0.198526	0.758219	0	0	54
45.551434	1.319637	city	7	1	1.096636	1.096636	0	1	0	0	CorrectCommission	0.904419	0.767322	0	0	54
46.851028	1.279550	city	9	1	1.038267	1.038267	0	1	0	0	CorrectCommission	1.135678	0.773257	0	0	54
48.130615	1.279628	city	5	1	0.812572	0.812572	0	1	0	0	CorrectCommission	2.029885	0.774793	0	0	54
49.410210	1.279556	city	6	1	1.180371	1.180371	0	1	0	0	CorrectCommission	0.572659	0.771132	0	0	54
50.049984	17.194346	break	0	1	1.129475	1.129475	0	0	0	0	ThoughtProbe	0.774307	0.762109	0	54	54
67.884117	1.279571	city	5	1	1.658050	1.658050	0	1	0	0	CorrectCommission	1.319920	0.748263	1	0	5.440000e+01
69.163696	1.279593	city	1	1	1.371230	1.371230	0	1	0	0	CorrectCommission	0.183532	0.730816	1	0	5.480000e+01
70.449944	1.292900	city	10	1	1.046763	1.046763	0	1	0	0	CorrectCommission	1.102018	0.711611	1	0	5.520000e+01
71.742775	1.292752	city	1	1	1.412225	1.412225	0	1	0	0	CorrectCommission	0.345955	0.692788	1	0	5.560000e+01
73.028984	1.279670	city	10	1	1.465407	1.465407	0	1	0	0	CorrectCommission	0.556662	0.676607	1	0	56
74.308655	1.279667	city	7	1	1.406475	1.406475	0	1	0	0	CorrectCommission	0.323171	0.665117	1	0	5.640000e+01
75.588272	1.279577	city	10	1	1.339689	1.339689	0	1	0	0	CorrectCommission	0.058563	0.659928	1	0	5.680000e+01
76.867851	1.279578	city	7	1	1.671648	1.671648	0	1	0	0	CorrectCommission	1.373791	0.662025	1	0	5.720000e+01
78.147430	1.279581	mountain	5	0	0.000000	1.513103	1	0	0	0	CorrectOmission	0.745635	0.671548	1	0	5.760000e+01
79.440323	1.306207	city	1	1	1.254813	1.254813	0	1	0	0	CorrectCommission	0.277716	0.687820	1	0	58
80.733154	1.279453	city	3	1	1.287534	1.287534	0	1	0	0	CorrectCommission	0.148074	0.709309	1	0	5.840000e+01
82.012703	1.279646	city	1	1	1.449289	1.449289	0	1	0	0	CorrectCommission	0.492801	0.733749	1	0	5.880000e+01
83.292358	1.279664	mountain	5	0	0.000000	1.434876	1	0	0	0	CorrectOmission	0.435695	0.758358	0	0	5.920000e+01
84.571960	1.279534	city	3	1	1.442779	1.442779	0	1	0	0	CorrectCommission	0.467008	0.780166	0	0	5.960000e+01
85.851463	1.279473	city	10	1	1.671483	1.671483	0	1	0	0	CorrectCommission	1.373141	0.796422	0	0	60
87.137650	1.292908	city	4	1	1.960186	1.960186	0	1	0	0	CorrectCommission	2.516989	0.804869	0	0	6.040000e+01
88.423973	1.279730	city	8	1	1.516320	1.516320	0	1	0	0	CorrectCommission	0.758382	0.804101	0	0	6.080000e+01
89.703629	1.279590	city	4	1	1.766154	1.766154	0	1	0	0	CorrectCommission	1.748228	0.793843	0	0	6.120000e+01
90.983215	1.279573	city	9	1	1.347806	1.347806	0	1	0	0	CorrectCommission	0.090724	0.774875	0	0	6.160000e+01
92.262711	1.279420	city	2	1	1.124334	1.124334	0	1	0	0	CorrectCommission	0.794677	0.749081	1	0	62
93.542297	1.279754	city	8	1	1.242557	1.242557	0	1	0	0	CorrectCommission	0.326275	0.719203	1	0	6.240000e+01
94.828613	1.292886	city	10	1	1.081439	1.081439	0	1	0	0	CorrectCommission	0.964630	0.688627	1	0	6.280000e+01
96.114845	1.279565	mountain	2	0	0.000000	1.260810	1	0	0	0	CorrectOmission	0.253956	0.661040	1	0	6.320000e+01
97.394402	1.279555	city	6	1	1.390153	1.390153	0	1	0	0	CorrectCommission	0.258502	0.640219	1	0	6.360000e+01
98.673988	1.279619	city	5	1	1.078948	1.078948	0	1	0	0	CorrectCommission	0.974498	0.629642	1	0	64
99.953529	1.279462	city	3	1	1.449069	1.449069	0	1	0	0	CorrectCommission	0.491929	0.632235	1	0	6.440000e+01
101.233109	1.279699	city	8	1	1.461249	1.461249	0	1	0	0	CorrectCommission	0.540189	0.650110	1	0	6.480000e+01
102.525948	1.305977	city	2	1	1.279758	1.279758	0	1	0	0	CorrectCommission	0.178885	0.684204	1	0	6.520000e+01
103.825508	1.293146	city	6	1	1.211392	1.211392	0	1	0	0	CorrectCommission	0.449751	0.734142	1	0	6.560000e+01
105.111885	1.279596	city	7	1	1.383810	1.383810	0	1	0	0	CorrectCommission	0.233373	0.798040	0	0	66
106.404747	1.306133	city	10	1	1.321614	1.321614	0	1	0	0	CorrectCommission	0.013049	0.872592	0	0	6.640000e+01
107.697647	1.279667	city	3	1	1.252733	1.252733	0	1	0	0	CorrectCommission	0.285960	0.953281	0	0	6.680000e+01
108.977196	1.279434	city	5	1	1.336962	1.336962	0	1	0	0	CorrectCommission	0.047759	1.034780	0	0	6.720000e+01
110.256775	1.279716	city	3	1	2.022013	2.022013	0	1	0	0	CorrectCommission	2.761949	1.111577	0	0	6.760000e+01
111.543091	1.292917	city	8	1	1.835526	1.835526	0	1	0	0	CorrectCommission	2.023083	1.178528	0	0	68
112.829346	1.279601	city	1	1	1.782687	1.782687	0	1	0	0	CorrectCommission	1.813733	1.231605	0	0	6.840000e+01
114.108856	1.279414	city	10	1	2.108321	2.108321	0	1	0	0	CorrectCommission	3.103901	1.268278	0	0	6.880000e+01
115.415092	1.333055	city	2	1	1.783754	1.783754	0	1	0	0	CorrectCommission	1.817962	1.287638	0	0	6.920000e+01
116.721336	1.279430	city	7	1	1.672818	1.672818	0	1	0	0	CorrectCommission	1.378429	1.290453	0	0	6.960000e+01
117.361046	10.836594	break	0	0	0.000000	1.575637	0	0	0	0	ThoughtProbe	0.993397	1.278704	0	70	70
128.837433	1.279571	city	4	1	1.448691	1.448691	0	1	0	0	CorrectCommission	0.490432	1.255140	0	0	6.917647e+01
130.130295	1.306180	city	9	1	1.248457	1.248457	0	1	0	0	CorrectCommission	0.302899	1.222736	0	0	6.835294e+01
131.423203	1.279618	city	6	1	1.071688	1.071688	0	1	0	0	CorrectCommission	1.003262	1.184320	0	0	6.752941e+01
132.702759	1.279503	city	5	1	1.088375	1.088375	0	1	0	0	CorrectCommission	0.937148	1.142274	0	0	6.670588e+01
133.995667	1.306311	city	8	1	0.907573	0.907573	0	1	0	0	CorrectCommission	1.653490	1.098561	0	0	6.588235e+01
135.295288	1.292932	mountain	5	1	0.567389	0.567389	0	0	1	0	CommissionError	3.001306	1.054777	0	0	6.505882e+01
136.581467	1.279434	city	7	1	1.408591	1.408591	0	1	0	0	CorrectCommission	0.331556	1.012325	0	0	6.423529e+01
137.861038	1.279699	city	8	1	1.129908	1.129908	0	1	0	0	CorrectCommission	0.772592	0.972676	0	0	6.341176e+01
139.147354	1.292919	city	4	1	1.129933	1.129933	0	1	0	0	CorrectCommission	0.772495	0.937288	0	0	6.258824e+01
140.440262	1.292898	city	1	1	1.203571	1.203571	0	1	0	0	CorrectCommission	0.480739	0.907643	0	0	6.176471e+01
141.726456	1.279511	city	8	1	1.136491	1.136491	0	1	0	0	CorrectCommission	0.746513	0.885079	0	0	6.094118e+01
143.006042	1.279660	city	9	1	1.246264	1.246264	0	1	0	0	CorrectCommission	0.311587	0.870593	0	0	6.011765e+01
144.285675	1.279586	city	10	1	0.973761	0.973761	0	1	0	0	CorrectCommission	1.391251	0.864640	0	0	5.929412e+01
145.565231	1.279551	city	4	1	1.422920	1.422920	0	1	0	0	CorrectCommission	0.388326	0.866905	0	0	5.847059e+01
146.851395	1.292760	city	3	1	1.314630	1.314630	0	1	0	0	CorrectCommission	0.040720	0.876377	0	0	5.764706e+01
148.150970	1.306381	city	8	1	0.995017	0.995017	0	1	0	0	CorrectCommission	1.307035	0.891236	0	0	5.682353e+01
149.443893	1.279475	city	6	1	1.192235	1.192235	0	1	0	0	CorrectCommission	0.525651	0.909126	0	0	56
150.723480	1.279695	mountain	2	0	0.000000	1.077668	1	0	0	0	CorrectOmission	0.979569	0.927460	0	0	5.517647e+01
152.036438	1.346221	city	1	1	0.942715	0.942715	0	1	0	0	CorrectCommission	1.514257	0.943700	0	0	5.435294e+01
153.349274	1.279465	city	10	1	1.078776	1.078776	0	1	0	0	CorrectCommission	0.975181	0.955781	0	0	5.352941e+01
154.628876	1.279718	city	8	1	1.573787	1.573787	0	1	0	0	CorrectCommission	0.986065	0.962381	0	0	5.270588e+01
155.908478	1.279490	city	7	1	1.829193	1.829193	0	1	0	0	CorrectCommission	1.997990	0.963085	0	0	5.188235e+01
157.187988	1.279542	city	8	1	1.684907	1.684907	0	1	0	0	CorrectCommission	1.426326	0.958384	0	0	5.105882e+01
158.474304	1.293076	city	4	1	1.575200	1.575200	0	1	0	0	CorrectCommission	0.991664	0.949577	0	0	5.023529e+01
159.767197	1.292715	city	10	1	1.429337	1.429337	0	1	0	0	CorrectCommission	0.413751	0.938406	0	0	4.941176e+01
161.059998	1.292885	city	1	1	1.467353	1.467353	0	1	0	0	CorrectCommission	0.564370	0.926710	0	0	4.858824e+01
162.352966	1.293062	city	9	1	1.516592	1.516592	0	1	0	0	CorrectCommission	0.759458	0.916002	0	0	4.776471e+01
163.639252	1.279495	city	2	1	1.478187	1.478187	0	1	0	0	CorrectCommission	0.607296	0.907166	0	0	4.694118e+01
164.925491	1.293004	city	3	1	1.458527	1.458527	0	1	0	0	CorrectCommission	0.529403	0.900336	0	0	4.611765e+01
166.211777	1.279565	city	2	1	1.400649	1.400649	0	1	0	0	CorrectCommission	0.300087	0.894833	0	0	4.529412e+01
167.491272	1.279421	city	8	1	1.680038	1.680038	0	1	0	0	CorrectCommission	1.407035	0.889379	0	0	4.447059e+01
168.790787	1.319617	city	4	1	1.644139	1.644139	0	1	0	0	CorrectCommission	1.264804	0.882381	0	0	4.364706e+01
170.090454	1.279700	city	8	0	0.000000	1.129859	0	0	0	1	OmissionError	0.772788	0.872339	0	0	4.282353e+01
170.730301	8.543849	break	0	1	0.770583	0.770583	0	0	0	0	ThoughtProbe	2.196247	0.858167	0	42	42
179.913940	1.279585	city	4	1	1.199699	1.199699	0	1	0	0	CorrectCommission	0.496081	0.839392	0	0	4.241304e+01
181.206772	1.306086	city	1	1	0.972706	0.972706	0	1	0	0	CorrectCommission	1.395432	0.816380	0	0	4.282609e+01
182.506302	1.292957	city	7	1	1.374748	1.374748	0	1	0	0	CorrectCommission	0.197467	0.790170	0	0	4.323913e+01
183.799286	1.293024	mountain	6	0	0.000000	1.196819	1	0	0	0	CorrectOmission	0.507491	0.762328	0	0	4.365217e+01
185.092255	1.292906	city	8	1	0.978143	0.978143	0	1	0	0	CorrectCommission	1.373891	0.734630	1	0	4.406522e+01
186.391815	1.306222	city	1	1	1.257942	1.257942	0	1	0	0	CorrectCommission	0.265322	0.708738	1	0	4.447826e+01
187.691299	1.292735	city	2	1	1.369414	1.369414	0	1	0	0	CorrectCommission	0.176335	0.685953	1	0	4.489130e+01
188.997452	1.319577	city	10	1	1.292809	1.292809	0	1	0	0	CorrectCommission	0.127176	0.666950	1	0	4.530435e+01
190.297104	1.279729	city	1	1	1.570368	1.570368	0	1	0	0	CorrectCommission	0.972519	0.651724	1	0	4.571739e+01
191.576767	1.279591	city	10	1	1.405059	1.405059	0	1	0	0	CorrectCommission	0.317560	0.639595	1	0	4.613043e+01
192.862946	1.292759	city	2	1	1.498711	1.498711	0	1	0	0	CorrectCommission	0.688614	0.629433	1	0	4.654348e+01
194.162521	1.306406	mountain	10	0	0.000000	1.209840	1	0	0	0	CorrectOmission	0.455902	0.619865	1	0	4.695652e+01
195.455505	1.279563	city	2	1	0.928123	0.928123	0	1	0	0	CorrectCommission	1.572070	0.609548	1	0	4.736957e+01
196.735077	1.279566	city	8	1	1.043241	1.043241	0	1	0	0	CorrectCommission	1.115970	0.597354	1	0	4.778261e+01
198.041245	1.332781	city	5	1	1.307695	1.307695	0	1	0	0	CorrectCommission	0.068198	0.582638	1	0	4.819565e+01
199.354095	1.292907	mountain	10	0	0.000000	1.282803	1	0	0	0	CorrectOmission	0.166818	0.565315	1	0	4.860870e+01
200.640305	1.279524	city	9	1	1.134121	1.134121	0	1	0	0	CorrectCommission	0.755902	0.545836	1	0	4.902174e+01
201.926529	1.292929	city	3	1	1.027202	1.027202	0	1	0	0	CorrectCommission	1.179518	0.525144	1	0	4.943478e+01
203.212860	1.279727	city	9	1	1.359655	1.359655	0	1	0	0	CorrectCommission	0.137670	0.504546	1	0	4.984783e+01
204.499176	1.292899	city	4	1	1.258038	1.258038	0	1	0	0	CorrectCommission	0.264937	0.485578	1	0	5.026087e+01
205.798584	1.305926	city	1	1	1.258578	1.258578	0	1	0	0	CorrectCommission	0.262801	0.469785	1	0	5.067391e+01
207.091446	1.279790	city	8	1	1.513106	1.513106	0	1	0	0	CorrectCommission	0.745646	0.458508	1	0	5.108696e+01
208.371170	1.279649	city	2	1	1.359333	1.359333	0	1	0	0	CorrectCommission	0.136395	0.452777	1	0	5.150000e+01
209.657410	1.292848	mountain	7	0	0.000000	1.360455	1	0	0	0	CorrectOmission	0.140838	0.453147	1	0	5.191304e+01
210.943619	1.279571	city	4	1	1.439686	1.439686	0	1	0	0	CorrectCommission	0.454752	0.459584	1	0	5.232609e+01
212.236542	1.306262	city	2	1	1.520242	1.520242	0	1	0	0	CorrectCommission	0.773920	0.471446	1	0	5.273913e+01
213.536102	1.292863	city	10	1	1.327282	1.327282	0	1	0	0	CorrectCommission	0.009407	0.487515	1	0	5.315217e+01
214.822388	1.279714	city	8	1	1.348102	1.348102	0	1	0	0	CorrectCommission	0.091896	0.506185	1	0	5.356522e+01
216.102036	1.279590	city	4	1	1.330168	1.330168	0	1	0	0	CorrectCommission	0.020842	0.525618	1	0	5.397826e+01
217.388260	1.292858	city	2	1	1.261104	1.261104	0	1	0	0	CorrectCommission	0.252793	0.544041	1	0	5.439130e+01
218.674500	1.279617	city	7	1	1.836711	1.836711	0	1	0	0	CorrectCommission	2.027776	0.560014	1	0	5.480435e+01
219.967438	1.306252	city	5	1	1.738015	1.738015	0	1	0	0	CorrectCommission	1.636742	0.572655	1	0	5.521739e+01
221.260376	1.279616	city	8	0	0.000000	1.383701	0	0	0	1	OmissionError	0.232939	0.581878	1	0	5.563043e+01
222.559937	1.319510	city	6	1	1.169566	1.169566	0	1	0	0	CorrectCommission	0.615467	0.588345	1	0	5.604348e+01
223.859482	1.279578	city	8	1	1.491412	1.491412	0	1	0	0	CorrectCommission	0.659695	0.593273	1	0	5.645652e+01
225.165695	1.332841	city	10	1	1.231617	1.231617	0	1	0	0	CorrectCommission	0.369620	0.598220	1	0	5.686957e+01
226.471863	1.279505	city	9	1	1.337538	1.337538	0	1	0	0	CorrectCommission	0.050043	0.604767	1	0	5.728261e+01
227.751450	1.279674	city	1	1	1.202660	1.202660	0	1	0	0	CorrectCommission	0.484348	0.614155	1	0	5.769565e+01
229.031097	1.279629	city	9	1	1.408420	1.408420	0	1	0	0	CorrectCommission	0.330877	0.626997	1	0	5.810870e+01
230.310638	1.279438	city	7	1	1.473817	1.473817	0	1	0	0	CorrectCommission	0.589982	0.643157	1	0	5.852174e+01
231.610260	1.319813	city	9	1	1.344956	1.344956	0	1	0	0	CorrectCommission	0.079432	0.661767	1	0	5.893478e+01
232.923157	1.305969	city	1	1	1.101224	1.101224	0	1	0	0	CorrectCommission	0.886238	0.681362	1	0	5.934783e+01
234.216003	1.279720	city	4	1	1.716331	1.716331	0	1	0	0	CorrectCommission	1.550827	0.700096	1	0	5.976087e+01
235.502304	1.292906	city	1	1	1.469948	1.469948	0	1	0	0	CorrectCommission	0.574654	0.716043	1	0	6.017391e+01
236.788559	1.279596	city	6	1	1.507920	1.507920	0	1	0	0	CorrectCommission	0.725099	0.727548	1	0	6.058696e+01
237.428360	12.409106	break	0	0	0.000000	1.582534	0	0	0	0	ThoughtProbe	1.020723	0.733385	1	61	61
250.483994	1.293058	city	7	1	1.632588	1.632588	0	1	0	0	CorrectCommission	1.219036	0.732919	1	0	6.052500e+01
251.790298	1.319544	mountain	3	0	0.000000	1.596876	1	0	0	0	CorrectOmission	1.077546	0.726144	1	0	6.005000e+01
253.089874	1.279607	city	5	1	1.461678	1.461678	0	1	0	0	CorrectCommission	0.541886	0.713625	1	0	5.957500e+01
254.382736	1.306141	mountain	9	1	1.213270	1.213270	0	0	1	0	CommissionError	0.442311	0.696344	1	0	5.910000e+01
255.682251	1.292884	city	9	1	1.316438	1.316438	0	1	0	0	CorrectCommission	0.033556	0.675513	1	0	5.862500e+01
256.981812	1.306214	city	10	1	0.923224	0.923224	0	1	0	0	CorrectCommission	1.591479	0.652456	1	0	5.815000e+01
258.274689	1.279536	city	3	1	1.195875	1.195875	0	1	0	0	CorrectCommission	0.511231	0.628372	1	0	5.767500e+01
259.560944	1.293002	city	8	1	1.220580	1.220580	0	1	0	0	CorrectCommission	0.413347	0.604392	1	0	5.720000e+01
260.847260	1.279645	city	5	1	1.313454	1.313454	0	1	0	0	CorrectCommission	0.045380	0.581529	1	0	5.672500e+01
262.140167	1.306139	city	3	1	1.160582	1.160582	0	1	0	0	CorrectCommission	0.651064	0.560733	1	0	5.625000e+01
263.433075	1.279695	city	4	1	1.075294	1.075294	0	1	0	0	CorrectCommission	0.988974	0.542968	1	0	5.577500e+01
264.732697	1.319553	city	6	1	1.180522	1.180522	0	1	0	0	CorrectCommission	0.572058	0.529300	1	0	5.530000e+01
266.038940	1.292909	city	10	1	1.257893	1.257893	0	1	0	0	CorrectCommission	0.265515	0.520950	1	0	5.482500e+01
267.331757	1.292738	city	4	1	1.464586	1.464586	0	1	0	0	CorrectCommission	0.553410	0.519209	1	0	5.435000e+01
268.638000	1.319748	city	10	1	1.420891	1.420891	0	1	0	0	CorrectCommission	0.380287	0.525315	1	0	5.387500e+01
269.950897	1.306059	city	9	1	1.454170	1.454170	0	1	0	0	CorrectCommission	0.512139	0.540249	1	0	5.340000e+01
271.263763	1.319657	city	2	1	1.270845	1.270845	0	1	0	0	CorrectCommission	0.214198	0.564497	1	0	5.292500e+01
272.576660	1.306140	city	3	1	1.210024	1.210024	0	1	0	0	CorrectCommission	0.455173	0.597770	1	0	5.245000e+01
273.869568	1.279689	mountain	8	0	0.000000	1.265207	1	0	0	0	CorrectOmission	0.236534	0.638804	1	0	5.197500e+01
275.149231	1.279604	city	10	1	1.373320	1.373320	0	1	0	0	CorrectCommission	0.191811	0.685302	1	0	5.150000e+01
276.442108	1.306141	city	5	1	1.471286	1.471286	0	1	0	0	CorrectCommission	0.579954	0.733988	1	0	5.102500e+01
277.741608	1.292873	city	2	1	1.478129	1.478129	0	1	0	0	CorrectCommission	0.607066	0.780850	0	0	5.055000e+01
279.034576	1.293074	city	10	1	1.210388	1.210388	0	1	0	0	CorrectCommission	0.453728	0.821585	0	0	5.007500e+01
280.320892	1.279554	city	8	1	1.532907	1.532907	0	1	0	0	CorrectCommission	0.824098	0.852117	0	0	4.960000e+01
281.607056	1.292795	city	3	1	2.056879	2.056879	0	1	0	0	CorrectCommission	2.900088	0.869133	0	0	4.912500e+01
282.913239	1.319550	city	2	1	1.913980	1.913980	0	1	0	0	CorrectCommission	2.333917	0.870529	0	0	4.865000e+01
284.212891	1.279734	city	10	0	0.000000	1.714809	0	0	0	1	OmissionError	1.544798	0.855770	0	0	4.817500e+01
285.492554	1.279592	city	6	1	1.512116	1.512116	0	1	0	0	CorrectCommission	0.741722	0.825876	0	0	4.770000e+01
286.772125	1.279563	city	7	1	1.358648	1.358648	0	1	0	0	CorrectCommission	0.133681	0.783270	0	0	4.722500e+01
288.051666	1.279550	city	6	1	1.458823	1.458823	0	1	0	0	CorrectCommission	0.530575	0.731411	1	0	4.675000e+01
289.337921	1.292935	city	4	1	1.375651	1.375651	0	1	0	0	CorrectCommission	0.201045	0.674320	1	0	4.627500e+01
290.644165	1.319570	city	3	1	1.153878	1.153878	0	1	0	0	CorrectCommission	0.677624	0.616087	1	0	4.580000e+01
291.943756	1.279597	city	4	1	1.196254	1.196254	0	1	0	0	CorrectCommission	0.509728	0.560481	1	0	4.532500e+01
293.223328	1.279553	city	10	1	1.196322	1.196322	0	1	0	0	CorrectCommission	0.509460	0.510689	1	0	4.485000e+01
294.509552	1.292893	city	5	1	1.311620	1.311620	0	1	0	0	CorrectCommission	0.052647	0.469199	1	0	4.437500e+01
295.802460	1.292948	city	4	1	1.188334	1.188334	0	1	0	0	CorrectCommission	0.541108	0.437737	1	0	4.390000e+01
297.088684	1.279487	city	9	1	1.360072	1.360072	0	1	0	0	CorrectCommission	0.139323	0.417324	1	0	4.342500e+01
298.381592	1.306333	city	2	1	1.412240	1.412240	0	1	0	0	CorrectCommission	0.346011	0.408410	1	0	4.295000e+01
299.687805	1.306060	city	3	1	1.327024	1.327024	0	1	0	0	CorrectCommission	0.008384	0.410970	1	0	4.247500e+01
300.340820	8.997049	break	0	0	0.000000	1.370812	0	0	0	0	ThoughtProbe	0.181872	0.424595	1	42	42
309.977692	1.279657	city	2	1	1.368622	1.368622	0	1	0	0	CorrectCommission	0.173196	0.448573	1	0	4.173529e+01
311.257294	1.279494	city	8	1	1.145474	1.145474	0	1	0	0	CorrectCommission	0.710922	0.481935	1	0	4.147059e+01
312.536896	1.279731	mountain	5	0	0.000000	1.135648	1	0	0	0	CorrectOmission	0.749850	0.523478	1	0	4.120588e+01
313.843231	1.332917	city	5	1	1.279439	1.279439	0	1	0	0	CorrectCommission	0.180148	0.571774	1	0	4.094118e+01
315.149445	1.279527	city	6	1	1.517139	1.517139	0	1	0	0	CorrectCommission	0.761626	0.625240	1	0	4.067647e+01
316.442291	1.306171	city	9	1	1.404904	1.404904	0	1	0	0	CorrectCommission	0.316949	0.682170	1	0	4.041176e+01
317.741882	1.293016	city	2	1	1.404375	1.404375	0	1	0	0	CorrectCommission	0.314852	0.740858	1	0	4.014706e+01
319.034851	1.292896	city	5	1	1.251225	1.251225	0	1	0	0	CorrectCommission	0.291934	0.799770	0	0	3.988235e+01
320.321075	1.279576	city	2	1	1.631286	1.631286	0	1	0	0	CorrectCommission	1.213877	0.857699	0	0	3.961765e+01
321.607300	1.292877	city	4	1	1.988138	1.988138	0	1	0	0	CorrectCommission	2.627733	0.913902	0	0	3.935294e+01
322.920197	1.332934	city	3	0	0.000000	1.515062	0	0	0	1	OmissionError	0.753394	0.968175	0	0	3.908824e+01
324.239746	1.306139	city	7	1	1.060700	1.060700	0	1	0	0	CorrectCommission	1.046798	1.020852	0	0	3.882353e+01
325.532593	1.279532	city	8	1	1.473695	1.473695	0	1	0	0	CorrectCommission	0.589500	1.072539	0	0	3.855882e+01
326.818878	1.293076	city	9	1	1.849849	1.849849	0	1	0	0	CorrectCommission	2.079830	1.123863	0	0	3.829412e+01
328.105225	1.279585	city	6	1	1.533573	1.533573	0	1	0	0	CorrectCommission	0.826735	1.175057	0	0	3.802941e+01
329.391418	1.292794	city	10	1	1.376087	1.376087	0	1	0	0	CorrectCommission	0.202775	1.225731	0	0	3.776471e+01
330.697540	1.319495	city	1	1	1.238621	1.238621	0	1	0	0	CorrectCommission	0.341871	1.274583	0	0	3.750000e+01
331.997101	1.279601	city	2	1	0.981891	0.981891	0	1	0	0	CorrectCommission	1.359041	1.319384	0	0	3.723529e+01
333.276672	1.279556	city	4	1	1.023053	1.023053	0	1	0	0	CorrectCommission	1.195957	1.357164	0	0	3.697059e+01
334.569641	1.306398	city	5	1	0.798678	0.798678	0	1	0	0	CorrectCommission	2.084936	1.384636	0	0	3.670588e+01
335.882538	1.319381	city	3	1	0.747084	0.747084	0	1	0	0	CorrectCommission	2.289352	1.398674	0	0	3.644118e+01
337.182129	1.279774	mountain	6	1	0.552817	0.552817	0	0	1	0	CommissionError	3.059040	1.396871	0	0	3.617647e+01
338.461761	1.279487	city	9	1	0.970191	0.970191	0	1	0	0	CorrectCommission	1.405398	1.377967	0	0	3.591176e+01
339.754669	1.306332	city	5	1	0.942508	0.942508	0	1	0	0	CorrectCommission	1.515076	1.342134	0	0	3.564706e+01
341.054230	1.292785	city	2	1	0.945051	0.945051	0	1	0	0	CorrectCommission	1.505002	1.290980	0	0	3.538235e+01
342.340363	1.279525	city	8	1	0.993162	0.993162	0	1	0	0	CorrectCommission	1.314385	1.227360	0	0	3.511765e+01
343.626617	1.292971	city	2	1	0.932684	0.932684	0	1	0	0	CorrectCommission	1.554001	1.155028	0	0	3.485294e+01
344.912933	1.279671	city	9	1	1.228958	1.228958	0	1	0	0	CorrectCommission	0.380156	1.078165	0	0	3.458824e+01
346.212463	1.319394	city	5	1	1.174782	1.174782	0	1	0	0	CorrectCommission	0.594801	1.000973	0	0	3.432353e+01
347.538696	1.333057	city	6	1	1.127668	1.127668	0	1	0	0	CorrectCommission	0.781467	0.927213	0	0	3.405882e+01
348.845032	1.279607	city	4	1	1.140035	1.140035	0	1	0	0	CorrectCommission	0.732469	0.859928	0	0	3.379412e+01
350.124603	1.279563	city	10	1	1.199757	1.199757	0	1	0	0	CorrectCommission	0.495851	0.801291	0	0	3.352941e+01
351.410858	1.292929	city	7	1	1.531614	1.531614	0	1	0	0	CorrectCommission	0.818976	0.752618	0	0	3.326471e+01
352.057312	11.969373	break	0	0	0.000000	1.362173	0	0	0	0	ThoughtProbe	0.147645	0.714396	1	33	33
364.679810	1.306248	city	5	1	1.125159	1.125159	0	1	0	0	CorrectCommission	0.791408	0.686466	1	0	3.313043e+01
365.972687	1.279493	city	3	1	1.254301	1.254301	0	1	0	0	CorrectCommission	0.279745	0.668127	1	0	3.326087e+01
367.258911	1.292952	city	4	1	0.997474	0.997474	0	1	0	0	CorrectCommission	1.297298	0.658355	1	0	3.339130e+01
368.545197	1.279626	city	5	1	1.554729	1.554729	0	1	0	0	CorrectCommission	0.910557	0.655847	1	0	3.352174e+01
369.838043	1.306072	city	8	1	1.270958	1.270958	0	1	0	0	CorrectCommission	0.213749	0.659171	1	0	3.365217e+01
371.137604	1.293052	mountain	1	0	0.000000	1.308681	1	0	0	0	CorrectOmission	0.064291	0.666786	1	0	3.378261e+01
372.430603	1.292909	city	5	1	1.360330	1.360330	0	1	0	0	CorrectCommission	0.140343	0.677119	1	0	3.391304e+01
373.736786	1.319445	city	1	1	1.118338	1.118338	0	1	0	0	CorrectCommission	0.818432	0.688673	1	0	3.404348e+01
375.042999	1.293025	city	6	1	1.196984	1.196984	0	1	0	0	CorrectCommission	0.506835	0.700125	1	0	3.417391e+01
376.335968	1.292914	city	10	1	0.820455	0.820455	0	1	0	0	CorrectCommission	1.998652	0.710508	1	0	3.430435e+01
377.642181	1.319478	city	2	1	1.055154	1.055154	0	1	0	0	CorrectCommission	1.068770	0.719297	1	0	3.443478e+01
378.948425	1.293003	city	8	1	1.099868	1.099868	0	1	0	0	CorrectCommission	0.891611	0.726511	1	0	3.456522e+01
380.235718	1.281619	mountain	1	0	0.000000	1.345117	1	0	0	0	CorrectOmission	0.080070	0.732653	1	0	3.469565e+01
381.515228	1.277390	city	9	1	1.567528	1.567528	0	1	0	0	CorrectCommission	0.961268	0.738604	1	0	3.482609e+01
382.807129	1.306386	mountain	3	0	0.000000	1.543730	1	0	0	0	CorrectOmission	0.866980	0.745418	1	0	3.495652e+01
384.113403	1.306189	city	4	1	1.386570	1.386570	0	1	0	0	CorrectCommission	0.244308	0.754164	0	0	3.508696e+01
385.419647	1.306288	city	2	1	1.208895	1.208895	0	1	0	0	CorrectCommission	0.459646	0.765691	0	0	3.521739e+01
386.712585	1.279589	city	3	1	1.202311	1.202311	0	1	0	0	CorrectCommission	0.485729	0.780468	0	0	3.534783e+01
387.998779	1.292801	city	8	1	1.509861	1.509861	0	1	0	0	CorrectCommission	0.732788	0.798560	0	0	3.547826e+01
389.284943	1.279559	city	4	1	1.461631	1.461631	0	1	0	0	CorrectCommission	0.541701	0.819635	0	0	3.560870e+01
390.571167	1.292861	city	1	1	0.928903	0.928903	0	1	0	0	CorrectCommission	1.568979	0.843059	0	0	3.573913e+01
391.870728	1.306248	city	10	1	0.975951	0.975951	0	1	0	0	CorrectCommission	1.382576	0.868015	0	0	3.586957e+01
393.177032	1.306385	city	4	1	1.181142	1.181142	0	1	0	0	CorrectCommission	0.569604	0.893680	0	0	36
394.469940	1.279429	city	10	1	1.100538	1.100538	0	1	0	0	CorrectCommission	0.888957	0.919348	0	0	3.613043e+01
395.749451	1.279582	city	1	1	1.526953	1.526953	0	1	0	0	CorrectCommission	0.800510	0.944455	0	0	3.626087e+01
397.035767	1.293045	city	7	1	1.452617	1.452617	0	1	0	0	CorrectCommission	0.505989	0.968687	0	0	3.639130e+01
398.335419	1.306266	city	8	1	1.673704	1.673704	0	1	0	0	CorrectCommission	1.381938	0.992007	0	0	3.652174e+01
399.641663	1.306211	city	9	1	1.488530	1.488530	0	1	0	0	CorrectCommission	0.648277	1.014622	0	0	3.665217e+01
400.947906	1.306262	city	10	1	0.983087	0.983087	0	1	0	0	CorrectCommission	1.354303	1.037006	0	0	3.678261e+01
402.240662	1.279290	city	4	1	0.868998	0.868998	0	1	0	0	CorrectCommission	1.806323	1.059744	0	0	3.691304e+01
403.533478	1.306351	city	9	1	1.600814	1.600814	0	1	0	0	CorrectCommission	1.093147	1.083453	0	0	3.704348e+01
404.833130	1.292941	mountain	9	0	0.000000	1.643703	1	0	0	0	CorrectOmission	1.263075	1.108579	0	0	3.717391e+01
406.119446	1.279686	city	7	1	1.356461	1.356461	0	1	0	0	CorrectCommission	0.125017	1.135174	0	0	3.730435e+01
407.405762	1.292941	city	6	1	1.097884	1.097884	0	1	0	0	CorrectCommission	0.899475	1.162724	0	0	3.743478e+01
408.692017	1.279554	city	1	1	1.018157	1.018157	0	1	0	0	CorrectCommission	1.215354	1.190002	0	0	3.756522e+01
410.004913	1.346224	city	2	1	1.109262	1.109262	0	1	0	0	CorrectCommission	0.854394	1.215083	0	0	3.769565e+01
411.317810	1.279579	city	3	1	1.038346	1.038346	0	1	0	0	CorrectCommission	1.135365	1.235498	0	0	3.782609e+01
412.610718	1.306247	city	2	1	0.835094	0.835094	0	1	0	0	CorrectCommission	1.940655	1.248526	0	0	3.795652e+01
413.910278	1.292901	city	10	1	0.887195	0.887195	0	1	0	0	CorrectCommission	1.734226	1.251597	0	0	3.808696e+01
415.209778	1.306079	city	7	1	1.659511	1.659511	0	1	0	0	CorrectCommission	1.325705	1.242800	0	0	3.821739e+01
416.509308	1.292989	city	9	1	1.588360	1.588360	0	1	0	0	CorrectCommission	1.043804	1.221297	0	0	3.834783e+01
417.795654	1.279668	city	5	1	1.887710	1.887710	0	1	0	0	CorrectCommission	2.229837	1.187618	0	0	3.847826e+01
419.081940	1.292913	city	3	1	1.859664	1.859664	0	1	0	0	CorrectCommission	2.118718	1.143745	0	0	3.860870e+01
420.381500	1.306231	city	1	1	1.781718	1.781718	0	1	0	0	CorrectCommission	1.809891	1.093024	0	0	3.873913e+01
421.687683	1.306107	city	2	1	1.542480	1.542480	0	1	0	0	CorrectCommission	0.862025	1.039784	0	0	3.886957e+01
425.273132	5.864801	break	0	0	0.000000	1.380313	0	0	0	0	ThoughtProbe	0.219518	0.988766	0	39	39
428.858582	1.306122	city	1	1	1.287375	1.287375	0	1	0	0	CorrectCommission	0.148707	0.944451	0	0	3.852941e+01
430.158112	1.292910	city	7	1	1.255820	1.255820	0	1	0	0	CorrectCommission	0.273728	0.910416	0	0	3.805882e+01
431.444366	1.279596	city	8	1	1.367477	1.367477	0	1	0	0	CorrectCommission	0.168661	0.888805	0	0	3.758824e+01
432.737244	1.306205	city	4	1	1.249930	1.249930	0	1	0	0	CorrectCommission	0.297062	0.880092	0	0	3.711765e+01
434.056915	1.333095	city	9	1	1.147830	1.147830	0	1	0	0	CorrectCommission	0.701585	0.883054	0	0	3.664706e+01
435.363220	1.279507	city	8	1	1.155778	1.155778	0	1	0	0	CorrectCommission	0.670098	0.895078	0	0	3.617647e+01
436.656128	1.306302	city	7	1	1.168643	1.168643	0	1	0	0	CorrectCommission	0.619124	0.912681	0	0	3.570588e+01
437.949005	1.279493	city	2	1	0.873517	0.873517	0	1	0	0	CorrectCommission	1.788420	0.932094	0	0	3.523529e+01
439.235260	1.292976	mountain	1	1	0.714813	0.714813	0	0	1	0	CommissionError	2.417210	0.949868	0	0	3.476471e+01
440.534851	1.306262	city	10	1	0.925681	0.925681	0	1	0	0	CorrectCommission	1.581745	0.963308	0	0	3.429412e+01
441.827789	1.279606	city	6	1	1.522303	1.522303	0	1	0	0	CorrectCommission	0.782085	0.970765	0	0	3.382353e+01
443.127594	1.320015	city	7	1	1.283499	1.283499	0	1	0	0	CorrectCommission	0.164062	0.971677	0	0	3.335294e+01
444.427155	1.279080	city	10	1	1.146813	1.146813	0	1	0	0	CorrectCommission	0.705615	0.966430	0	0	3.288235e+01
445.739716	1.346067	city	6	1	0.992906	0.992906	0	1	0	0	CorrectCommission	1.315399	0.956060	0	0	3.241176e+01
447.072632	1.319724	city	8	1	1.125319	1.125319	0	1	0	0	CorrectCommission	0.790774	0.941980	0	0	3.194118e+01
448.372284	1.279592	city	5	1	0.938451	0.938451	0	1	0	0	CorrectCommission	1.531149	0.925712	0	0	3.147059e+01
449.678528	1.332896	city	10	1	1.545810	1.545810	0	1	0	0	CorrectCommission	0.875221	0.908637	0	0	31
451.004669	1.319401	city	2	1	1.408161	1.408161	0	1	0	0	CorrectCommission	0.329853	0.891900	0	0	3.052941e+01
452.330902	1.333058	mountain	1	1	1.206275	1.206275	0	0	1	0	CommissionError	0.470028	0.876384	0	0	3.005882e+01
453.657227	1.319566	city	1	1	1.144252	1.144252	0	1	0	0	CorrectCommission	0.715760	0.862742	0	0	2.958824e+01
454.976776	1.319555	city	9	1	0.993791	0.993791	0	1	0	0	CorrectCommission	1.311892	0.851494	0	0	2.911765e+01
456.302979	1.332826	city	5	1	1.025079	1.025079	0	1	0	0	CorrectCommission	1.187927	0.843082	0	0	2.864706e+01
457.609222	1.279662	city	7	1	1.034476	1.034476	0	1	0	0	CorrectCommission	1.150698	0.837931	0	0	2.817647e+01
458.888763	1.279451	city	5	1	1.446842	1.446842	0	1	0	0	CorrectCommission	0.483106	0.836415	0	0	2.770588e+01
460.201660	1.346331	city	8	1	1.521622	1.521622	0	1	0	0	CorrectCommission	0.779388	0.838772	0	0	2.723529e+01
461.521271	1.292909	city	9	1	1.447463	1.447463	0	1	0	0	CorrectCommission	0.485567	0.844952	0	0	2.676471e+01
462.907410	1.479367	city	4	1	1.253101	1.253101	0	1	0	0	CorrectCommission	0.284500	0.854535	0	0	2.629412e+01
464.286926	1.279660	city	2	1	0.964938	0.964938	0	1	0	0	CorrectCommission	1.426208	0.866656	0	0	2.582353e+01
465.599915	1.346314	city	8	1	1.195367	1.195367	0	1	0	0	CorrectCommission	0.513241	0.879998	0	0	2.535294e+01
466.932770	1.319377	city	2	1	1.283873	1.283873	0	1	0	0	CorrectCommission	0.162581	0.892970	0	0	2.488235e+01
468.232269	1.279613	city	10	1	1.503802	1.503802	0	1	0	0	CorrectCommission	0.708783	0.903886	0	0	2.441176e+01
469.531860	1.319610	city	8	1	1.732236	1.732236	0	1	0	0	CorrectCommission	1.613846	0.911230	0	0	2.394118e+01
470.858124	1.332914	city	7	1	1.815615	1.815615	0	1	0	0	CorrectCommission	1.944194	0.913915	0	0	2.347059e+01
474.923431	6.797695	break	0	0	0.000000	1.761370	0	0	0	0	ThoughtProbe	1.729276	0.911482	0	23	23
478.975494	1.306399	city	2	1	1.636806	1.636806	0	1	0	0	CorrectCommission	1.235750	0.904121	0	0	2.310870e+01
480.275055	1.292740	mountain	6	0	0.000000	1.509226	1	0	0	0	CorrectOmission	0.730275	0.892528	0	0	2.321739e+01
481.567932	1.293009	city	2	1	1.402005	1.402005	0	1	0	0	CorrectCommission	0.305462	0.877732	0	0	2.332609e+01
482.867493	1.306134	city	8	1	1.338517	1.338517	0	1	0	0	CorrectCommission	0.053920	0.860795	0	0	2.343478e+01
484.180420	1.319717	city	2	1	1.207517	1.207517	0	1	0	0	CorrectCommission	0.465106	0.842589	0	0	2.354348e+01
485.479980	1.279412	city	4	1	1.199655	1.199655	0	1	0	0	CorrectCommission	0.496255	0.823658	0	0	2.365217e+01
486.759552	1.279709	city	8	1	1.482415	1.482415	0	1	0	0	CorrectCommission	0.624048	0.804211	0	0	2.376087e+01
488.045868	1.292917	city	7	1	1.632338	1.632338	0	1	0	0	CorrectCommission	1.218046	0.784235	0	0	2.386957e+01
489.338776	1.292930	city	6	1	1.898819	1.898819	0	1	0	0	CorrectCommission	2.273851	0.763648	0	0	2.397826e+01
490.631714	1.292910	city	8	1	1.729466	1.729466	0	1	0	0	CorrectCommission	1.602869	0.742478	1	0	2.408696e+01
491.971191	1.386049	city	5	1	1.365344	1.365344	0	1	0	0	CorrectCommission	0.160209	0.720958	1	0	2.419565e+01
493.304016	1.279604	city	8	1	1.299576	1.299576	0	1	0	0	CorrectCommission	0.100367	0.699494	1	0	2.430435e+01
494.603668	1.319724	city	2	1	1.276378	1.276378	0	1	0	0	CorrectCommission	0.192274	0.678528	1	0	2.441304e+01
495.903320	1.279575	city	6	1	1.363127	1.363127	0	1	0	0	CorrectCommission	0.151425	0.658398	1	0	2.452174e+01
497.189575	1.292892	city	5	1	1.195157	1.195157	0	1	0	0	CorrectCommission	0.514076	0.639244	1	0	2.463043e+01
498.475708	1.279408	city	3	1	1.524147	1.524147	0	1	0	0	CorrectCommission	0.789390	0.620925	1	0	2.473913e+01
499.755280	1.279745	city	9	1	1.492105	1.492105	0	1	0	0	CorrectCommission	0.662441	0.603112	1	0	2.484783e+01
501.054962	1.319584	mountain	2	0	0.000000	1.243214	1	0	0	0	CorrectOmission	0.323672	0.585411	1	0	2.495652e+01
502.354523	1.279569	mountain	5	0	0.000000	0.984407	1	0	0	0	CorrectOmission	1.349072	0.567560	1	0	2.506522e+01
503.654083	1.319562	city	1	1	0.922618	0.922618	0	1	0	0	CorrectCommission	1.593883	0.549490	1	0	2.517391e+01
504.973663	1.319565	city	2	1	1.264780	1.264780	0	1	0	0	CorrectCommission	0.238229	0.531496	1	0	2.528261e+01
506.273224	1.279564	city	1	1	1.322081	1.322081	0	1	0	0	CorrectCommission	0.011198	0.514253	1	0	2.539130e+01
507.566040	1.306082	city	8	1	1.273047	1.273047	0	1	0	0	CorrectCommission	0.205472	0.498687	1	0	2.550000e+01
508.858978	1.279772	city	9	1	1.349447	1.349447	0	1	0	0	CorrectCommission	0.097224	0.485872	1	0	2.560870e+01
510.151978	1.306217	city	10	1	1.166270	1.166270	0	1	0	0	CorrectCommission	0.628525	0.476896	1	0	2.571739e+01
511.464783	1.319394	city	4	1	1.281701	1.281701	0	1	0	0	CorrectCommission	0.171186	0.472725	1	0	2.582609e+01
512.770996	1.292999	city	5	1	1.410081	1.410081	0	1	0	0	CorrectCommission	0.337459	0.474132	1	0	2.593478e+01
514.083923	1.332893	city	2	1	1.276325	1.276325	0	1	0	0	CorrectCommission	0.192486	0.481634	1	0	2.604348e+01
515.390198	1.279701	city	10	1	1.043529	1.043529	0	1	0	0	CorrectCommission	1.114831	0.495495	1	0	2.615217e+01
516.669739	1.279378	city	5	1	1.527822	1.527822	0	1	0	0	CorrectCommission	0.803952	0.515691	1	0	2.626087e+01
517.969299	1.319726	city	1	1	1.354644	1.354644	0	1	0	0	CorrectCommission	0.117814	0.541921	1	0	2.636957e+01
519.275635	1.292923	city	4	1	1.158196	1.158196	0	1	0	0	CorrectCommission	0.660515	0.573591	1	0	2.647826e+01
520.575134	1.306079	city	7	1	1.261623	1.261623	0	1	0	0	CorrectCommission	0.250734	0.609774	1	0	2.658696e+01
521.867920	1.279474	city	1	1	1.312446	1.312446	0	1	0	0	CorrectCommission	0.049374	0.649250	1	0	2.669565e+01
523.154175	1.293006	mountain	8	0	0.000000	1.405546	1	0	0	0	CorrectOmission	0.319492	0.690526	1	0	2.680435e+01
524.440552	1.279748	city	1	1	1.472424	1.472424	0	1	0	0	CorrectCommission	0.584464	0.732032	1	0	2.691304e+01
525.733521	1.306212	city	9	1	1.444579	1.444579	0	1	0	0	CorrectCommission	0.474140	0.772265	0	0	2.702174e+01
527.032959	1.292746	city	8	1	2.019731	2.019731	0	1	0	0	CorrectCommission	2.752907	0.810016	0	0	2.713043e+01
528.332581	1.306405	city	5	0	0.000000	1.614659	0	0	0	1	OmissionError	1.148002	0.844482	0	0	2.723913e+01
529.658875	1.346238	city	1	1	1.037777	1.037777	0	1	0	0	CorrectCommission	1.137620	0.875458	0	0	2.734783e+01
530.991760	1.319542	city	2	1	1.097497	1.097497	0	1	0	0	CorrectCommission	0.901008	0.903180	0	0	2.745652e+01
532.304565	1.306079	city	10	1	1.194758	1.194758	0	1	0	0	CorrectCommission	0.515656	0.928245	0	0	2.756522e+01
533.597534	1.279768	city	4	1	1.396440	1.396440	0	1	0	0	CorrectCommission	0.283415	0.951420	0	0	2.767391e+01
534.883850	1.292888	city	5	1	1.488059	1.488059	0	1	0	0	CorrectCommission	0.646408	0.973427	0	0	2.778261e+01
536.210083	1.359560	city	1	1	1.534699	1.534699	0	1	0	0	CorrectCommission	0.831200	0.994828	0	0	2.789130e+01
540.362000	6.944336	break	0	0	0.000000	1.581340	0	0	0	0	ThoughtProbe	1.015991	1.015991	0	28	28
