onset	duration	trial_type	image_type	Press	ReactionTime	ReactionTime_Interpolated	CorrectOmission	CorrectCommission	CommissionError	OmissionError	response_type	nonsmoothVarianceTimeCourse	VarianceTimeCourse	In_the_Zone	ThoughtProbe	ThoughtProbe_Interpolated
0.659536	1.292996	city	9	1	1.404151	1.404151	0	1	0	0	CorrectCommission	0.656790	0.656790	1	0	47
1.952491	1.292913	city	2	1	1.355466	1.355466	0	1	0	0	CorrectCommission	0.407991	0.654559	1	0	47
3.238734	1.279574	mountain	2	0	0.000000	1.433370	1	0	0	0	CorrectOmission	0.806115	0.651202	1	0	47
4.524893	1.292743	city	10	1	1.458164	1.458164	0	1	0	0	CorrectCommission	0.932822	0.645695	1	0	47
5.811060	1.279591	city	1	1	1.250148	1.250148	0	1	0	0	CorrectCommission	0.130232	0.637233	1	0	47
7.097397	1.293083	city	4	1	1.120270	1.120270	0	1	0	0	CorrectCommission	0.793968	0.625303	1	0	47
8.390394	1.292911	city	3	1	1.074202	1.074202	0	1	0	0	CorrectCommission	1.029398	0.609749	1	0	47
9.676546	1.279393	city	9	1	1.023489	1.023489	0	1	0	0	CorrectCommission	1.288567	0.590760	1	0	47
10.956126	1.279766	city	7	1	1.346177	1.346177	0	1	0	0	CorrectCommission	0.360521	0.568887	1	0	47
12.235787	1.279558	city	9	1	1.338399	1.338399	0	1	0	0	CorrectCommission	0.320771	0.544971	1	0	47
13.515362	1.279590	city	1	1	1.231330	1.231330	0	1	0	0	CorrectCommission	0.226402	0.520021	1	0	47
14.794884	1.279455	mountain	3	0	0.000000	1.355570	1	0	0	0	CorrectOmission	0.408522	0.495150	1	0	47
16.074457	1.279693	city	6	1	1.444766	1.444766	0	1	0	0	CorrectCommission	0.864353	0.471406	1	0	47
17.354048	1.279488	city	2	1	1.232564	1.232564	0	1	0	0	CorrectCommission	0.220096	0.449774	1	0	47
18.633543	1.279502	city	7	1	1.245102	1.245102	0	1	0	0	CorrectCommission	0.156022	0.431118	1	0	47
19.913113	1.279639	city	4	1	1.288568	1.288568	0	1	0	0	CorrectCommission	0.066108	0.416177	1	0	47
21.199438	1.293011	city	10	1	1.088666	1.088666	0	1	0	0	CorrectCommission	0.955481	0.405586	1	0	47
22.492397	1.292909	city	6	1	1.253582	1.253582	0	1	0	0	CorrectCommission	0.112684	0.399870	1	0	47
23.778561	1.279416	city	5	1	1.154379	1.154379	0	1	0	0	CorrectCommission	0.619658	0.399529	1	0	47
25.058140	1.279744	city	3	1	1.205733	1.205733	0	1	0	0	CorrectCommission	0.357216	0.404930	1	0	47
26.337732	1.279438	mountain	5	0	0.000000	1.249441	1	0	0	0	CorrectOmission	0.133848	0.416310	1	0	47
27.617317	1.279733	city	4	1	1.296411	1.296411	0	1	0	0	CorrectCommission	0.106193	0.433670	1	0	47
28.896967	1.279564	mountain	8	0	0.000000	1.357553	1	0	0	0	CorrectOmission	0.418653	0.456704	1	0	47
30.189800	1.306104	city	9	1	1.373494	1.373494	0	1	0	0	CorrectCommission	0.500121	0.484715	1	0	47
31.482647	1.279589	city	2	1	1.284865	1.284865	0	1	0	0	CorrectCommission	0.047184	0.516579	1	0	47
32.762211	1.279537	city	8	1	1.102756	1.102756	0	1	0	0	CorrectCommission	0.883476	0.550767	1	0	47
34.041786	1.279614	city	5	1	1.231871	1.231871	0	1	0	0	CorrectCommission	0.223635	0.585398	1	0	47
35.321449	1.279711	city	10	1	1.124312	1.124312	0	1	0	0	CorrectCommission	0.773313	0.618399	1	0	47
36.601089	1.279574	city	5	1	1.417863	1.417863	0	1	0	0	CorrectCommission	0.726868	0.647648	1	0	47
37.887333	1.292910	city	8	1	1.360481	1.360481	0	1	0	0	CorrectCommission	0.433619	0.671181	1	0	47
39.193581	1.319585	city	9	1	1.714252	1.714252	0	1	0	0	CorrectCommission	2.241551	0.687407	0	0	47
40.493069	1.279393	city	7	1	1.254836	1.254836	0	1	0	0	CorrectCommission	0.106275	0.695177	0	0	47
41.799217	1.332902	city	1	1	1.021455	1.021455	0	1	0	0	CorrectCommission	1.298962	0.694005	0	0	47
43.112122	1.292905	city	4	1	1.423964	1.423964	0	1	0	0	CorrectCommission	0.758045	0.683943	0	0	47
44.405071	1.292999	city	3	1	1.199012	1.199012	0	1	0	0	CorrectCommission	0.391560	0.665682	1	0	47
45.698074	1.293003	city	2	1	1.140943	1.140943	0	1	0	0	CorrectCommission	0.688319	0.640393	1	0	47
47.010929	1.332710	city	4	1	1.295103	1.295103	0	1	0	0	CorrectCommission	0.099505	0.609662	1	0	47
48.317101	1.279633	city	5	1	1.638084	1.638084	0	1	0	0	CorrectCommission	1.852297	0.575382	1	0	47
49.603424	1.293015	city	10	1	1.209749	1.209749	0	1	0	0	CorrectCommission	0.336691	0.539563	1	0	47
50.903049	1.306238	city	1	1	1.214498	1.214498	0	1	0	0	CorrectCommission	0.312423	0.504329	1	0	47
52.202633	1.292924	city	4	1	1.250950	1.250950	0	1	0	0	CorrectCommission	0.126136	0.471682	1	0	47
53.495468	1.292749	city	3	1	1.197782	1.197782	0	1	0	0	CorrectCommission	0.397849	0.443427	1	0	47
54.795052	1.306420	city	2	1	1.214871	1.214871	0	1	0	0	CorrectCommission	0.310516	0.421024	1	0	47
56.101357	1.306189	city	7	1	1.241717	1.241717	0	1	0	0	CorrectCommission	0.173318	0.405506	1	0	47
57.407581	1.306260	city	4	1	1.219960	1.219960	0	1	0	0	CorrectCommission	0.284506	0.397395	1	0	47
58.060715	10.889652	break	0	0	0.000000	1.245916	0	0	0	0	ThoughtProbe	0.151859	0.396668	1	47	47
69.603508	1.306288	city	9	1	1.248139	1.248139	0	1	0	0	CorrectCommission	0.140502	0.402828	1	0	4.776471e+01
70.909782	1.306267	city	10	1	1.155182	1.155182	0	1	0	0	CorrectCommission	0.615556	0.414923	1	0	4.852941e+01
72.216049	1.306260	mountain	2	0	0.000000	1.299398	1	0	0	0	CorrectOmission	0.121454	0.431700	1	0	4.929412e+01
73.515625	1.292892	city	3	1	1.404976	1.404976	0	1	0	0	CorrectCommission	0.661007	0.451753	1	0	5.005882e+01
74.835182	1.346216	city	1	1	1.196105	1.196105	0	1	0	0	CorrectCommission	0.406419	0.473652	1	0	5.082353e+01
76.148048	1.279515	city	6	1	1.369439	1.369439	0	1	0	0	CorrectCommission	0.479397	0.496121	1	0	5.158824e+01
77.454285	1.332960	city	1	1	1.248914	1.248914	0	1	0	0	CorrectCommission	0.136539	0.518095	1	0	5.235294e+01
78.760475	1.279423	city	9	1	1.655746	1.655746	0	1	0	0	CorrectCommission	1.942560	0.538857	1	0	5.311765e+01
80.060043	1.319715	city	1	1	1.279658	1.279658	0	1	0	0	CorrectCommission	0.020574	0.557893	1	0	5.388235e+01
81.379692	1.319578	city	10	1	1.115188	1.115188	0	1	0	0	CorrectCommission	0.819941	0.574993	1	0	5.464706e+01
82.692604	1.306254	city	5	1	1.212433	1.212433	0	1	0	0	CorrectCommission	0.322972	0.589996	1	0	5.541176e+01
84.005424	1.319381	city	6	1	1.128501	1.128501	0	1	0	0	CorrectCommission	0.751905	0.602760	1	0	5.617647e+01
85.304939	1.279647	mountain	9	1	1.305763	1.305763	0	0	1	0	CommissionError	0.153983	0.613028	1	0	5.694118e+01
86.584572	1.279627	city	7	1	1.317165	1.317165	0	1	0	0	CorrectCommission	0.212252	0.620390	1	0	5.770588e+01
87.884117	1.319453	city	3	1	1.121103	1.121103	0	1	0	0	CorrectCommission	0.789713	0.624341	1	0	5.847059e+01
89.203712	1.319748	city	10	1	1.099764	1.099764	0	1	0	0	CorrectCommission	0.898764	0.624358	1	0	5.923529e+01
90.510048	1.292914	city	9	1	1.042903	1.042903	0	1	0	0	CorrectCommission	1.189348	0.620092	1	0	60
91.802940	1.292879	city	1	1	1.097789	1.097789	0	1	0	0	CorrectCommission	0.908859	0.611484	1	0	6.076471e+01
93.109169	1.319571	city	5	1	1.167654	1.167654	0	1	0	0	CorrectCommission	0.551815	0.598906	1	0	6.152941e+01
94.421997	1.306086	city	2	1	1.071671	1.071671	0	1	0	0	CorrectCommission	1.042334	0.583173	1	0	6.229412e+01
95.714821	1.279564	city	1	1	1.190623	1.190623	0	1	0	0	CorrectCommission	0.434433	0.565467	1	0	6.305882e+01
97.001152	1.293093	city	3	1	1.208767	1.208767	0	1	0	0	CorrectCommission	0.341711	0.547239	1	0	6.382353e+01
98.294136	1.292884	city	5	1	1.250232	1.250232	0	1	0	0	CorrectCommission	0.129804	0.529962	1	0	6.458824e+01
99.580368	1.279579	city	6	1	1.337515	1.337515	0	1	0	0	CorrectCommission	0.316249	0.514937	1	0	6.535294e+01
100.866531	1.292744	city	2	1	1.254932	1.254932	0	1	0	0	CorrectCommission	0.105787	0.503128	1	0	6.611765e+01
102.159363	1.292920	city	7	1	1.151006	1.151006	0	1	0	0	CorrectCommission	0.636894	0.495014	1	0	6.688235e+01
103.445602	1.279565	city	3	1	1.036286	1.036286	0	1	0	0	CorrectCommission	1.223166	0.490545	1	0	6.764706e+01
104.745277	1.319777	city	6	1	1.284398	1.284398	0	1	0	0	CorrectCommission	0.044799	0.489163	1	0	6.841176e+01
106.044853	1.279376	city	1	1	1.303478	1.303478	0	1	0	0	CorrectCommission	0.142306	0.489962	1	0	6.917647e+01
107.344391	1.319704	city	10	1	1.283462	1.283462	0	1	0	0	CorrectCommission	0.040015	0.491721	1	0	6.994118e+01
108.650627	1.292768	city	7	1	1.438534	1.438534	0	1	0	0	CorrectCommission	0.832505	0.493183	1	0	7.070588e+01
109.950172	1.306328	city	5	1	1.431882	1.431882	0	1	0	0	CorrectCommission	0.798508	0.493213	1	0	7.147059e+01
111.263092	1.319498	city	4	1	1.449740	1.449740	0	1	0	0	CorrectCommission	0.889775	0.491009	1	0	7.223529e+01
111.922836	15.701637	break	0	0	0.000000	1.378858	0	0	0	0	ThoughtProbe	0.527533	0.486228	1	73	73
128.264206	1.279456	city	2	1	1.337383	1.337383	0	1	0	0	CorrectCommission	0.315575	0.479081	1	0	7.197826e+01
129.543777	1.279708	city	4	1	1.443462	1.443462	0	1	0	0	CorrectCommission	0.857691	0.470323	1	0	7.095652e+01
130.823425	1.279579	city	8	1	1.176185	1.176185	0	1	0	0	CorrectCommission	0.508218	0.461165	1	0	6.993478e+01
132.102921	1.279411	mountain	9	0	0.000000	1.193995	1	0	0	0	CorrectOmission	0.417200	0.453092	1	0	6.891304e+01
133.382507	1.279769	city	9	1	1.296695	1.296695	0	1	0	0	CorrectCommission	0.107641	0.447678	1	0	6.789130e+01
134.662201	1.279607	city	3	1	1.284085	1.284085	0	1	0	0	CorrectCommission	0.043201	0.446366	1	0	6.686957e+01
135.941757	1.279519	city	5	1	1.403504	1.403504	0	1	0	0	CorrectCommission	0.653487	0.450267	1	0	6.584783e+01
137.227982	1.292918	city	6	1	1.298457	1.298457	0	1	0	0	CorrectCommission	0.116648	0.459979	1	0	6.482609e+01
138.514236	1.279597	city	4	1	1.253643	1.253643	0	1	0	0	CorrectCommission	0.112371	0.475559	1	0	6.380435e+01
139.793747	1.279420	city	10	1	1.136587	1.136587	0	1	0	0	CorrectCommission	0.710581	0.496494	1	0	6.278261e+01
141.073242	1.279577	city	7	1	1.314928	1.314928	0	1	0	0	CorrectCommission	0.200823	0.521763	1	0	6.176087e+01
142.352814	1.279561	city	8	1	1.183044	1.183044	0	1	0	0	CorrectCommission	0.473165	0.549993	1	0	6.073913e+01
143.632462	1.279736	city	5	1	1.390915	1.390915	0	1	0	0	CorrectCommission	0.589151	0.579583	1	0	5.971739e+01
144.912048	1.279435	mountain	2	0	0.000000	1.497986	1	0	0	0	CorrectOmission	1.136333	0.608881	1	0	5.869565e+01
146.191544	1.279558	city	3	1	1.462128	1.462128	0	1	0	0	CorrectCommission	0.953079	0.636315	1	0	5.767391e+01
147.471207	1.279770	city	4	1	1.241210	1.241210	0	1	0	0	CorrectCommission	0.175910	0.660529	1	0	5.665217e+01
148.750809	1.279425	city	7	1	1.017496	1.017496	0	1	0	0	CorrectCommission	1.319193	0.680420	0	0	5.563043e+01
150.030289	1.279544	city	6	1	1.394515	1.394515	0	1	0	0	CorrectCommission	0.607545	0.695126	0	0	5.460870e+01
151.309860	1.279583	mountain	6	0	0.000000	1.389638	1	0	0	0	CorrectOmission	0.582623	0.704099	0	0	5.358696e+01
152.589523	1.279764	city	7	1	1.230964	1.230964	0	1	0	0	CorrectCommission	0.228275	0.707138	0	0	5.256522e+01
153.869156	1.279488	city	2	1	1.146589	1.146589	0	1	0	0	CorrectCommission	0.659466	0.704356	0	0	5.154348e+01
155.148727	1.279649	city	9	1	1.733434	1.733434	0	1	0	0	CorrectCommission	2.339580	0.696297	0	0	5.052174e+01
156.428329	1.279574	city	4	1	1.267110	1.267110	0	1	0	0	CorrectCommission	0.043549	0.683955	0	0	4.950000e+01
157.707916	1.279601	city	8	1	1.180429	1.180429	0	1	0	0	CorrectCommission	0.486528	0.668877	1	0	4.847826e+01
158.987518	1.279578	city	5	1	1.444883	1.444883	0	1	0	0	CorrectCommission	0.864952	0.653027	1	0	4.745652e+01
160.267090	1.279578	city	4	1	1.068440	1.068440	0	1	0	0	CorrectCommission	1.058842	0.638755	1	0	4.643478e+01
161.546600	1.279430	city	2	1	1.142308	1.142308	0	1	0	0	CorrectCommission	0.681343	0.628606	1	0	4.541304e+01
162.826172	1.279737	city	5	1	1.286709	1.286709	0	1	0	0	CorrectCommission	0.056611	0.625071	1	0	4.439130e+01
164.105759	1.279415	mountain	8	0	0.000000	1.352373	1	0	0	0	CorrectOmission	0.392182	0.630267	1	0	4.336957e+01
165.385284	1.279659	city	2	1	1.337582	1.337582	0	1	0	0	CorrectCommission	0.316595	0.645651	1	0	4.234783e+01
166.664871	1.279489	city	10	1	1.240621	1.240621	0	1	0	0	CorrectCommission	0.178923	0.671739	0	0	4.132609e+01
167.944473	1.279725	city	9	1	1.284270	1.284270	0	1	0	0	CorrectCommission	0.044145	0.707945	0	0	4.030435e+01
169.224045	1.279431	city	1	1	1.289232	1.289232	0	1	0	0	CorrectCommission	0.069503	0.752564	0	0	3.928261e+01
170.503632	1.279723	city	8	1	1.560757	1.560757	0	1	0	0	CorrectCommission	1.457120	0.802916	0	0	3.826087e+01
171.783203	1.279425	city	4	1	1.561179	1.561179	0	1	0	0	CorrectCommission	1.459277	0.855479	0	0	3.723913e+01
173.062744	1.279661	city	8	1	1.051967	1.051967	0	1	0	0	CorrectCommission	1.143028	0.906332	0	0	3.621739e+01
174.342407	1.279673	city	9	1	1.403063	1.403063	0	1	0	0	CorrectCommission	0.651234	0.951548	0	0	3.519565e+01
175.621964	1.279432	city	2	1	1.337224	1.337224	0	1	0	0	CorrectCommission	0.314765	0.987630	0	0	3.417391e+01
176.901474	1.279582	city	9	1	1.814990	1.814990	0	1	0	0	CorrectCommission	2.756365	1.011853	0	0	3.315217e+01
178.181122	1.279725	city	4	1	1.230717	1.230717	0	1	0	0	CorrectCommission	0.229537	1.022584	0	0	3.213043e+01
179.460785	1.279585	city	6	1	0.964213	0.964213	0	1	0	0	CorrectCommission	1.591494	1.019631	0	0	3.110870e+01
180.740356	1.279578	city	10	1	0.810892	0.810892	0	1	0	0	CorrectCommission	2.375032	1.004113	0	0	3.008696e+01
182.019867	1.279425	city	4	1	1.604022	1.604022	0	1	0	0	CorrectCommission	1.678226	0.978421	0	0	2.906522e+01
183.299377	1.279608	city	10	1	1.406894	1.406894	0	1	0	0	CorrectCommission	0.670809	0.945907	0	0	2.804348e+01
184.578979	1.279606	city	8	1	1.401764	1.401764	0	1	0	0	CorrectCommission	0.644594	0.910468	0	0	2.702174e+01
185.218796	8.343993	break	0	0	0.000000	1.340283	0	0	0	0	ThoughtProbe	0.330399	0.875967	0	26	26
194.202499	1.279435	city	4	1	1.281636	1.281636	0	1	0	0	CorrectCommission	0.030684	0.845713	0	0	2.767500e+01
195.482086	1.279722	city	10	1	1.285006	1.285006	0	1	0	0	CorrectCommission	0.047908	0.822048	0	0	2.935000e+01
196.761673	1.279462	city	1	1	1.548560	1.548560	0	1	0	0	CorrectCommission	1.394787	0.806087	0	0	3.102500e+01
198.041260	1.279716	city	4	1	1.337537	1.337537	0	1	0	0	CorrectCommission	0.316366	0.797657	0	0	3.270000e+01
199.320908	1.279582	city	5	1	1.284117	1.284117	0	1	0	0	CorrectCommission	0.043365	0.795492	0	0	3.437500e+01
200.600510	1.279606	city	1	1	1.230139	1.230139	0	1	0	0	CorrectCommission	0.232491	0.797526	0	0	3.605000e+01
201.886749	1.292881	city	3	1	1.934819	1.934819	0	1	0	0	CorrectCommission	3.368746	0.801313	0	0	3.772500e+01
203.172882	1.279393	city	2	1	1.395018	1.395018	0	1	0	0	CorrectCommission	0.610116	0.804412	0	0	3.940000e+01
204.452377	1.279580	mountain	6	0	0.000000	1.187328	1	0	0	0	CorrectOmission	0.451271	0.804874	0	0	4.107500e+01
205.731964	1.279606	city	4	1	1.124098	1.124098	0	1	0	0	CorrectCommission	0.774408	0.801337	0	0	4.275000e+01
207.011627	1.279715	city	2	1	1.017673	1.017673	0	1	0	0	CorrectCommission	1.318289	0.793188	0	0	4.442500e+01
208.291245	1.279512	city	9	1	1.340980	1.340980	0	1	0	0	CorrectCommission	0.333958	0.780537	0	0	4.610000e+01
209.570816	1.279644	city	2	1	1.191309	1.191309	0	1	0	0	CorrectCommission	0.430927	0.764130	0	0	4.777500e+01
210.850464	1.279640	mountain	10	1	1.550669	1.550669	0	0	1	0	CommissionError	1.405564	0.745141	0	0	4.945000e+01
212.130035	1.279523	city	9	1	1.100447	1.100447	0	1	0	0	CorrectCommission	0.895274	0.724878	0	0	5.112500e+01
213.409592	1.279579	city	3	1	1.175789	1.175789	0	1	0	0	CorrectCommission	0.510243	0.704737	0	0	5.280000e+01
214.689163	1.279580	mountain	9	0	0.000000	1.167823	1	0	0	0	CorrectOmission	0.550951	0.685903	0	0	5.447500e+01
215.968674	1.279426	city	2	1	1.212110	1.212110	0	1	0	0	CorrectCommission	0.324627	0.669233	1	0	5.615000e+01
217.248245	1.279728	city	3	1	1.444208	1.444208	0	1	0	0	CorrectCommission	0.861500	0.655215	1	0	5.782500e+01
218.527908	1.279583	city	4	1	1.240044	1.240044	0	1	0	0	CorrectCommission	0.181869	0.643909	1	0	5.950000e+01
219.807480	1.279573	city	2	1	1.207134	1.207134	0	1	0	0	CorrectCommission	0.350057	0.635028	1	0	6.117500e+01
221.087067	1.279603	city	5	1	1.124149	1.124149	0	1	0	0	CorrectCommission	0.774149	0.627999	1	0	6.285000e+01
222.366669	1.279580	city	2	1	1.017616	1.017616	0	1	0	0	CorrectCommission	1.318578	0.622108	1	0	6.452500e+01
223.646164	1.279419	city	3	1	1.230471	1.230471	0	1	0	0	CorrectCommission	0.230794	0.616632	1	0	6.620000e+01
224.925751	1.279742	city	7	1	1.378398	1.378398	0	1	0	0	CorrectCommission	0.525181	0.610991	1	0	6.787500e+01
226.212067	1.292896	city	2	1	1.154424	1.154424	0	1	0	0	CorrectCommission	0.619428	0.604781	1	0	6.955000e+01
227.498291	1.279562	city	10	1	0.941968	0.941968	0	1	0	0	CorrectCommission	1.705175	0.597851	1	0	7.122500e+01
228.777863	1.279588	city	5	1	1.286406	1.286406	0	1	0	0	CorrectCommission	0.055063	0.590275	1	0	7.290000e+01
230.057465	1.279592	city	3	1	1.284114	1.284114	0	1	0	0	CorrectCommission	0.043346	0.582308	1	0	7.457500e+01
231.337036	1.279562	city	9	1	1.155757	1.155757	0	1	0	0	CorrectCommission	0.612614	0.574375	1	0	7.625000e+01
232.616608	1.279580	city	8	1	1.177492	1.177492	0	1	0	0	CorrectCommission	0.501542	0.566978	1	0	7.792500e+01
233.896194	1.279593	city	1	1	1.230749	1.230749	0	1	0	0	CorrectCommission	0.229372	0.560722	1	0	7.960000e+01
235.175781	1.279581	city	6	1	1.018046	1.018046	0	1	0	0	CorrectCommission	1.316380	0.556309	1	0	8.127500e+01
236.455353	1.279560	city	4	1	1.200721	1.200721	0	1	0	0	CorrectCommission	0.382830	0.554552	1	0	8.295000e+01
237.734848	1.279422	city	3	1	1.138083	1.138083	0	1	0	0	CorrectCommission	0.702936	0.556428	1	0	8.462500e+01
239.014435	1.279760	city	1	1	1.230970	1.230970	0	1	0	0	CorrectCommission	0.228241	0.562952	1	0	8.630000e+01
240.294006	1.279391	city	4	1	1.230759	1.230759	0	1	0	0	CorrectCommission	0.229319	0.575178	1	0	8.797500e+01
241.573578	1.279740	city	8	1	1.070970	1.070970	0	1	0	0	CorrectCommission	1.045913	0.593996	1	0	8.965000e+01
242.853241	1.279584	city	3	1	1.196303	1.196303	0	1	0	0	CorrectCommission	0.405406	0.619948	1	0	9.132500e+01
246.678650	6.371253	break	0	0	0.000000	1.224803	0	0	0	0	ThoughtProbe	0.259758	0.653088	1	93	93
250.517349	1.306131	city	6	1	1.193807	1.193807	0	1	0	0	CorrectCommission	0.418164	0.692754	0	0	9.076471e+01
251.816910	1.292995	city	3	1	1.140650	1.140650	0	1	0	0	CorrectCommission	0.689819	0.737481	0	0	8.852941e+01
253.136505	1.346195	city	1	1	1.250825	1.250825	0	1	0	0	CorrectCommission	0.126772	0.785019	0	0	8.629412e+01
254.475983	1.332764	city	7	1	1.512806	1.512806	0	1	0	0	CorrectCommission	1.212070	0.832475	0	0	8.405882e+01
255.828903	1.373086	city	10	1	1.342045	1.342045	0	1	0	0	CorrectCommission	0.339401	0.876535	0	0	8.182353e+01
257.155151	1.279373	city	6	1	1.461793	1.461793	0	1	0	0	CorrectCommission	0.951368	0.913945	0	0	7.958824e+01
258.454620	1.319597	mountain	10	1	1.649709	1.649709	0	0	1	0	CommissionError	1.911707	0.941847	0	0	7.735294e+01
259.754272	1.279708	city	5	1	0.972716	0.972716	0	1	0	0	CorrectCommission	1.548037	0.958218	0	0	7.511765e+01
261.033844	1.279417	city	2	1	0.814351	0.814351	0	1	0	0	CorrectCommission	2.357358	0.962159	0	0	7.288235e+01
262.313354	1.279617	city	9	1	1.047977	1.047977	0	1	0	0	CorrectCommission	1.163421	0.954037	0	0	7.064706e+01
263.599670	1.293034	city	6	1	1.167798	1.167798	0	1	0	0	CorrectCommission	0.551081	0.935438	0	0	6.841176e+01
264.905975	1.319566	city	7	1	1.407132	1.407132	0	1	0	0	CorrectCommission	0.672024	0.908862	0	0	6.617647e+01
266.238892	1.346242	city	8	1	1.411754	1.411754	0	1	0	0	CorrectCommission	0.695649	0.877345	0	0	6.394118e+01
267.551819	1.279603	city	9	1	1.446780	1.446780	0	1	0	0	CorrectCommission	0.874646	0.844011	0	0	6.170588e+01
268.844635	1.306059	city	6	1	1.342004	1.342004	0	1	0	0	CorrectCommission	0.339190	0.811634	0	0	5.947059e+01
270.170837	1.346358	city	2	1	1.074119	1.074119	0	1	0	0	CorrectCommission	1.029825	0.782339	0	0	5.723529e+01
271.497162	1.306258	city	10	1	1.222918	1.222918	0	1	0	0	CorrectCommission	0.269392	0.757340	0	0	55
272.809998	1.319414	city	6	1	1.244289	1.244289	0	1	0	0	CorrectCommission	0.160174	0.736954	0	0	5.276471e+01
274.136200	1.333023	city	2	1	1.124759	1.124759	0	1	0	0	CorrectCommission	0.771028	0.720714	0	0	5.052941e+01
275.449188	1.292932	mountain	6	1	1.034890	1.034890	0	0	1	0	CommissionError	1.230301	0.707597	0	0	4.829412e+01
276.735382	1.279487	city	4	1	1.208606	1.208606	0	1	0	0	CorrectCommission	0.342533	0.696402	0	0	4.605882e+01
278.028290	1.306305	city	10	1	1.049595	1.049595	0	1	0	0	CorrectCommission	1.155150	0.686118	0	0	4.382353e+01
279.334503	1.306139	city	2	1	1.150732	1.150732	0	1	0	0	CorrectCommission	0.638297	0.676152	0	0	4.158824e+01
280.634094	1.293003	city	9	1	1.103510	1.103510	0	1	0	0	CorrectCommission	0.879622	0.666610	1	0	3.935294e+01
281.940369	1.319590	city	1	1	1.125024	1.125024	0	1	0	0	CorrectCommission	0.769674	0.658309	1	0	3.711765e+01
283.246552	1.292726	city	3	1	1.089748	1.089748	0	1	0	0	CorrectCommission	0.949952	0.652697	1	0	3.488235e+01
284.539368	1.292911	city	8	1	1.126906	1.126906	0	1	0	0	CorrectCommission	0.760058	0.651609	1	0	3.264706e+01
285.832275	1.292917	city	3	1	1.297687	1.297687	0	1	0	0	CorrectCommission	0.112710	0.656944	1	0	3.041176e+01
287.131897	1.306316	city	1	1	1.341528	1.341528	0	1	0	0	CorrectCommission	0.336759	0.670274	1	0	2.817647e+01
288.424835	1.279565	city	3	1	1.324188	1.324188	0	1	0	0	CorrectCommission	0.248143	0.692472	0	0	2.594118e+01
289.737762	1.346330	city	5	1	1.307603	1.307603	0	1	0	0	CorrectCommission	0.163386	0.723470	0	0	2.370588e+01
291.077301	1.332712	city	9	1	1.339910	1.339910	0	1	0	0	CorrectCommission	0.328490	0.762160	0	0	2.147059e+01
292.410187	1.333075	city	6	1	1.274421	1.274421	0	1	0	0	CorrectCommission	0.006189	0.806461	0	0	1.923529e+01
293.076721	12.902262	break	0	0	0.000000	1.065545	0	0	0	0	ThoughtProbe	1.073641	0.853573	0	17	17
306.632172	1.306381	mountain	10	0	0.000000	0.869536	1	0	0	0	CorrectOmission	2.075337	0.900278	0	0	1.773913e+01
307.951813	1.332892	city	2	1	0.842647	0.842647	0	1	0	0	CorrectCommission	2.212749	0.943355	0	0	1.847826e+01
309.264648	1.292755	city	3	1	1.141133	1.141133	0	1	0	0	CorrectCommission	0.687352	0.979948	0	0	1.921739e+01
310.564209	1.306393	city	4	1	1.100064	1.100064	0	1	0	0	CorrectCommission	0.897233	1.007838	0	0	1.995652e+01
311.863800	1.292749	city	5	1	1.144545	1.144545	0	1	0	0	CorrectCommission	0.669911	1.025558	0	0	2.069565e+01
313.149963	1.279611	mountain	10	0	0.000000	1.058158	1	0	0	0	CorrectOmission	1.111391	1.032474	0	0	2.143478e+01
314.462952	1.346374	city	5	1	0.986203	0.986203	0	1	0	0	CorrectCommission	1.479116	1.028707	0	0	2.217391e+01
315.775909	1.279557	city	6	1	1.073981	1.073981	0	1	0	0	CorrectCommission	1.030527	1.015035	0	0	2.291304e+01
317.068726	1.306070	city	2	1	0.914289	0.914289	0	1	0	0	CorrectCommission	1.846624	0.992787	0	0	2.365217e+01
318.381592	1.319643	mountain	1	1	1.093125	1.093125	0	0	1	0	CommissionError	0.932692	0.963604	0	0	2.439130e+01
319.701233	1.319652	city	7	1	1.041635	1.041635	0	1	0	0	CorrectCommission	1.195828	0.929330	0	0	2.513043e+01
321.020782	1.319406	city	5	1	1.247114	1.247114	0	1	0	0	CorrectCommission	0.145741	0.891789	0	0	2.586957e+01
322.326996	1.293067	city	6	1	1.158472	1.158472	0	1	0	0	CorrectCommission	0.598742	0.852656	0	0	2.660870e+01
323.639893	1.332735	city	1	1	1.066466	1.066466	0	1	0	0	CorrectCommission	1.068931	0.813279	0	0	2.734783e+01
324.952759	1.292956	city	7	1	1.150598	1.150598	0	1	0	0	CorrectCommission	0.638981	0.774652	0	0	2.808696e+01
326.245697	1.292950	city	1	1	1.092429	1.092429	0	1	0	0	CorrectCommission	0.936251	0.737436	0	0	2.882609e+01
327.551910	1.319477	city	10	1	1.209693	1.209693	0	1	0	0	CorrectCommission	0.336977	0.701935	0	0	2.956522e+01
328.871521	1.319728	city	5	1	1.207084	1.207084	0	1	0	0	CorrectCommission	0.350312	0.668248	1	0	3.030435e+01
330.177826	1.292910	city	6	1	1.091021	1.091021	0	1	0	0	CorrectCommission	0.943445	0.636380	1	0	3.104348e+01
331.477417	1.306232	city	9	1	1.081023	1.081023	0	1	0	0	CorrectCommission	0.994540	0.606294	1	0	3.178261e+01
332.776978	1.292913	city	5	1	1.094110	1.094110	0	1	0	0	CorrectCommission	0.927658	0.578089	1	0	3.252174e+01
334.063232	1.279588	city	9	1	1.250465	1.250465	0	1	0	0	CorrectCommission	0.128612	0.551974	1	0	3.326087e+01
335.376068	1.346057	city	10	1	1.238918	1.238918	0	1	0	0	CorrectCommission	0.187622	0.528311	1	0	34
336.708954	1.319717	city	7	1	1.200848	1.200848	0	1	0	0	CorrectCommission	0.382177	0.507557	1	0	3.473913e+01
338.015259	1.292932	city	3	1	1.155212	1.155212	0	1	0	0	CorrectCommission	0.615398	0.490245	1	0	3.547826e+01
339.314850	1.306218	mountain	6	0	0.000000	1.161075	1	0	0	0	CorrectOmission	0.585436	0.476887	1	0	3.621739e+01
340.641052	1.346207	city	2	1	1.218418	1.218418	0	1	0	0	CorrectCommission	0.292391	0.467932	1	0	3.695652e+01
341.960571	1.292848	city	5	1	1.327220	1.327220	0	1	0	0	CorrectCommission	0.263638	0.463706	1	0	3.769565e+01
343.266846	1.319657	city	4	1	1.355396	1.355396	0	1	0	0	CorrectCommission	0.407634	0.464372	1	0	3.843478e+01
344.593048	1.332740	city	3	1	1.298735	1.298735	0	1	0	0	CorrectCommission	0.118070	0.469925	1	0	3.917391e+01
345.925873	1.332957	city	6	1	1.464485	1.464485	0	1	0	0	CorrectCommission	0.965127	0.480210	1	0	3.991304e+01
347.252106	1.319476	city	9	1	1.347897	1.347897	0	1	0	0	CorrectCommission	0.369308	0.494919	1	0	4.065217e+01
348.564972	1.306288	city	1	1	1.272389	1.272389	0	1	0	0	CorrectCommission	0.016575	0.513683	1	0	4.139130e+01
349.864624	1.293022	city	8	1	1.374824	1.374824	0	1	0	0	CorrectCommission	0.506918	0.536090	1	0	4.213043e+01
351.184265	1.346230	city	7	1	1.524778	1.524778	0	1	0	0	CorrectCommission	1.273251	0.561687	1	0	4.286957e+01
352.550476	1.386217	city	9	1	1.274766	1.274766	0	1	0	0	CorrectCommission	0.004427	0.589999	1	0	4.360870e+01
353.896729	1.306244	city	4	1	1.268806	1.268806	0	1	0	0	CorrectCommission	0.034882	0.620600	1	0	4.434783e+01
355.196228	1.292746	city	6	1	1.593280	1.593280	0	1	0	0	CorrectCommission	1.623325	0.652961	1	0	4.508696e+01
356.509186	1.333195	city	3	1	1.278126	1.278126	0	1	0	0	CorrectCommission	0.012746	0.686431	0	0	4.582609e+01
357.815491	1.279423	city	4	1	1.569533	1.569533	0	1	0	0	CorrectCommission	1.501970	0.720242	0	0	4.656522e+01
359.121643	1.332895	city	3	1	1.419063	1.419063	0	1	0	0	CorrectCommission	0.733001	0.753327	0	0	4.730435e+01
360.441193	1.306200	city	10	1	1.356560	1.356560	0	1	0	0	CorrectCommission	0.413583	0.784383	0	0	4.804348e+01
361.754089	1.319603	city	9	1	1.387412	1.387412	0	1	0	0	CorrectCommission	0.571246	0.811846	0	0	4.878261e+01
363.067017	1.306232	city	8	1	1.401531	1.401531	0	1	0	0	CorrectCommission	0.643401	0.834016	0	0	4.952174e+01
364.399841	1.359438	city	3	1	1.376758	1.376758	0	1	0	0	CorrectCommission	0.516803	0.849216	0	0	5.026087e+01
365.079559	9.890035	break	0	0	0.000000	1.476979	0	0	0	0	ThoughtProbe	1.028978	0.856072	0	51	51
375.622711	1.306235	mountain	4	0	0.000000	1.604771	1	0	0	0	CorrectOmission	1.682053	0.853753	0	0	5.120588e+01
376.915619	1.279580	city	3	1	1.662711	1.662711	0	1	0	0	CorrectCommission	1.978153	0.842206	0	0	5.141176e+01
378.195312	1.279766	city	1	1	1.553377	1.553377	0	1	0	0	CorrectCommission	1.419403	0.822279	0	0	5.161765e+01
379.528290	1.386201	city	10	1	1.553437	1.553437	0	1	0	0	CorrectCommission	1.419711	0.795666	0	0	5.182353e+01
380.914490	1.386174	city	3	1	1.266532	1.266532	0	1	0	0	CorrectCommission	0.046506	0.764679	0	0	5.202941e+01
382.267365	1.319590	city	5	1	1.299469	1.299469	0	1	0	0	CorrectCommission	0.121821	0.731927	0	0	5.223529e+01
383.566956	1.279576	city	7	1	1.298725	1.298725	0	1	0	0	CorrectCommission	0.118015	0.699866	0	0	5.244118e+01
384.879852	1.346240	city	2	1	1.284781	1.284781	0	1	0	0	CorrectCommission	0.046758	0.670505	1	0	5.264706e+01
386.219391	1.332843	city	1	1	1.239174	1.239174	0	1	0	0	CorrectCommission	0.186314	0.645177	1	0	5.285294e+01
387.565613	1.359610	city	10	1	1.009077	1.009077	0	1	0	0	CorrectCommission	1.362216	0.624457	1	0	5.305882e+01
388.898438	1.306054	city	2	1	1.156467	1.156467	0	1	0	0	CorrectCommission	0.608986	0.608241	1	0	5.326471e+01
390.197937	1.292936	city	5	1	1.394118	1.394118	0	1	0	0	CorrectCommission	0.605521	0.596076	1	0	5.347059e+01
391.517517	1.346196	city	2	1	1.137877	1.137877	0	1	0	0	CorrectCommission	0.703992	0.587305	1	0	5.367647e+01
392.870453	1.359714	city	7	1	1.061077	1.061077	0	1	0	0	CorrectCommission	1.096473	0.581348	1	0	5.388235e+01
394.210052	1.319441	city	9	1	1.205202	1.205202	0	1	0	0	CorrectCommission	0.359928	0.577917	1	0	5.408824e+01
395.529541	1.319547	city	2	1	1.214770	1.214770	0	1	0	0	CorrectCommission	0.311031	0.577075	1	0	5.429412e+01
396.842499	1.306394	city	6	1	1.448749	1.448749	0	1	0	0	CorrectCommission	0.884708	0.579205	1	0	5.450000e+01
398.155487	1.319595	city	1	1	1.292924	1.292924	0	1	0	0	CorrectCommission	0.088370	0.584860	1	0	5.470588e+01
399.455078	1.279544	city	2	1	1.370307	1.370307	0	1	0	0	CorrectCommission	0.483835	0.594660	1	0	5.491176e+01
400.754547	1.319404	city	7	1	1.377904	1.377904	0	1	0	0	CorrectCommission	0.522655	0.609051	1	0	5.511765e+01
402.060791	1.293100	city	6	1	1.341760	1.341760	0	1	0	0	CorrectCommission	0.337943	0.628178	1	0	5.532353e+01
403.400360	1.386046	city	2	1	1.163717	1.163717	0	1	0	0	CorrectCommission	0.571935	0.651769	1	0	5.552941e+01
404.733246	1.279724	mountain	2	0	0.000000	1.369386	1	0	0	0	CorrectOmission	0.479128	0.679121	0	0	5.573529e+01
406.012817	1.279404	city	7	1	1.565653	1.565653	0	1	0	0	CorrectCommission	1.482141	0.709133	0	0	5.594118e+01
407.359039	1.413046	city	8	1	1.359404	1.359404	0	1	0	0	CorrectCommission	0.428114	0.740378	0	0	5.614706e+01
408.725342	1.319544	city	3	1	1.389063	1.389063	0	1	0	0	CorrectCommission	0.579688	0.771291	0	0	5.635294e+01
410.064819	1.359390	city	1	1	1.401873	1.401873	0	1	0	0	CorrectCommission	0.645152	0.800339	0	0	5.655882e+01
411.411041	1.333081	city	5	1	1.423512	1.423512	0	1	0	0	CorrectCommission	0.755734	0.826217	0	0	5.676471e+01
412.743958	1.332741	city	8	1	1.444817	1.444817	0	1	0	0	CorrectCommission	0.864612	0.848024	0	0	5.697059e+01
414.063507	1.306385	city	4	1	1.503119	1.503119	0	1	0	0	CorrectCommission	1.162566	0.865408	0	0	5.717647e+01
415.369751	1.306103	city	7	1	1.768764	1.768764	0	1	0	0	CorrectCommission	2.520129	0.878633	0	0	5.738235e+01
416.669250	1.292858	city	6	1	1.396248	1.396248	0	1	0	0	CorrectCommission	0.616405	0.888480	0	0	5.758824e+01
417.975525	1.319733	city	8	1	1.172634	1.172634	0	1	0	0	CorrectCommission	0.526363	0.896216	0	0	5.779412e+01
418.635406	10.862943	break	0	1	1.214168	1.214168	0	0	0	0	ThoughtProbe	0.314109	0.903218	0	58	58
430.144867	1.293057	city	8	1	1.465970	1.465970	0	1	0	0	CorrectCommission	0.972713	0.910732	0	0	5.742500e+01
431.457855	1.332919	city	3	1	1.521866	1.521866	0	1	0	0	CorrectCommission	1.258370	0.919535	0	0	5.685000e+01
432.784027	1.319378	city	8	1	1.274803	1.274803	0	1	0	0	CorrectCommission	0.004235	0.929736	0	0	5.627500e+01
434.096832	1.306240	city	2	1	1.134520	1.134520	0	1	0	0	CorrectCommission	0.721148	0.940703	0	0	5.570000e+01
435.403076	1.306259	city	6	1	1.035993	1.035993	0	1	0	0	CorrectCommission	1.224662	0.951008	0	0	5.512500e+01
436.709320	1.306224	city	9	0	0.000000	1.133561	0	0	0	1	OmissionError	0.726048	0.958710	0	0	5.455000e+01
438.028870	1.332898	mountain	10	1	1.176177	1.176177	0	0	1	0	CommissionError	0.508261	0.961635	0	0	5.397500e+01
439.368500	1.346376	city	4	1	0.912796	0.912796	0	1	0	0	CorrectCommission	1.854258	0.957750	0	0	5.340000e+01
440.714813	1.346228	city	3	1	0.801751	0.801751	0	1	0	0	CorrectCommission	2.421748	0.945509	0	0	5.282500e+01
442.047668	1.319495	city	2	1	0.977910	0.977910	0	1	0	0	CorrectCommission	1.521496	0.924176	0	0	5.225000e+01
443.373932	1.333021	city	5	1	1.279700	1.279700	0	1	0	0	CorrectCommission	0.020788	0.893994	0	0	5.167500e+01
444.686859	1.292863	city	4	1	1.129390	1.129390	0	1	0	0	CorrectCommission	0.747360	0.856170	0	0	5.110000e+01
445.993073	1.319523	city	10	1	1.043288	1.043288	0	1	0	0	CorrectCommission	1.187384	0.812707	0	0	5.052500e+01
447.292633	1.279627	city	4	1	1.433748	1.433748	0	1	0	0	CorrectCommission	0.808045	0.766245	0	0	4.995000e+01
448.578827	1.292760	mountain	4	0	0.000000	1.361472	1	0	0	0	CorrectOmission	0.438681	0.719725	0	0	4.937500e+01
449.885071	1.319718	city	4	1	1.166297	1.166297	0	1	0	0	CorrectCommission	0.558750	0.676106	0	0	4.880000e+01
451.191376	1.292891	city	8	1	1.188062	1.188062	0	1	0	0	CorrectCommission	0.447520	0.638090	1	0	4.822500e+01
452.484283	1.292898	city	7	1	1.386647	1.386647	0	1	0	0	CorrectCommission	0.567336	0.607929	1	0	4.765000e+01
453.803772	1.346088	city	4	1	1.275905	1.275905	0	1	0	0	CorrectCommission	0.001396	0.587226	1	0	4.707500e+01
455.176605	1.399580	city	5	1	1.168211	1.168211	0	1	0	0	CorrectCommission	0.548970	0.576933	1	0	4.650000e+01
456.516144	1.279541	city	9	1	1.177572	1.177572	0	1	0	0	CorrectCommission	0.501128	0.577239	1	0	4.592500e+01
457.815704	1.319540	city	3	1	1.275882	1.275882	0	1	0	0	CorrectCommission	0.001278	0.587619	1	0	4.535000e+01
459.128662	1.306406	city	8	1	1.129559	1.129559	0	1	0	0	CorrectCommission	0.746497	0.606874	1	0	4.477500e+01
460.428711	1.293692	city	2	1	1.161022	1.161022	0	1	0	0	CorrectCommission	0.585706	0.633166	1	0	4.420000e+01
461.721649	1.292139	city	9	1	1.506716	1.506716	0	1	0	0	CorrectCommission	1.180945	0.664187	1	0	4.362500e+01
463.020813	1.306215	city	7	1	1.320865	1.320865	0	1	0	0	CorrectCommission	0.231161	0.697216	0	0	4.305000e+01
464.347015	1.346224	city	5	1	1.217424	1.217424	0	1	0	0	CorrectCommission	0.297467	0.729318	0	0	4.247500e+01
465.693176	1.346062	mountain	10	1	1.186582	1.186582	0	0	1	0	CommissionError	0.455085	0.757553	0	0	4.190000e+01
467.026001	1.319580	city	10	1	0.999374	0.999374	0	1	0	0	CorrectCommission	1.411806	0.779221	0	0	4.132500e+01
468.372314	1.373045	city	7	1	1.048145	1.048145	0	1	0	0	CorrectCommission	1.162563	0.792134	0	0	4.075000e+01
469.731964	1.346262	city	2	1	1.004576	1.004576	0	1	0	0	CorrectCommission	1.385219	0.794913	0	0	4.017500e+01
471.044800	1.279438	city	10	1	1.177884	1.177884	0	1	0	0	CorrectCommission	0.499536	0.787191	0	0	3.960000e+01
472.330963	1.292839	city	4	1	1.757344	1.757344	0	1	0	0	CorrectCommission	2.461767	0.769778	0	0	3.902500e+01
473.657227	1.359708	city	7	1	1.418052	1.418052	0	1	0	0	CorrectCommission	0.727832	0.744523	0	0	3.845000e+01
474.983459	1.292752	city	3	1	1.328438	1.328438	0	1	0	0	CorrectCommission	0.269863	0.714253	0	0	3.787500e+01
476.322998	1.386345	city	10	1	1.208773	1.208773	0	1	0	0	CorrectCommission	0.341679	0.682381	0	0	3.730000e+01
477.682648	1.332929	city	9	1	1.160728	1.160728	0	1	0	0	CorrectCommission	0.587212	0.652508	1	0	3.672500e+01
478.988800	1.279417	city	2	1	1.289253	1.289253	0	1	0	0	CorrectCommission	0.069611	0.628004	1	0	3.615000e+01
480.281708	1.306404	city	9	1	1.396491	1.396491	0	1	0	0	CorrectCommission	0.617647	0.611609	1	0	3.557500e+01
480.934937	13.448575	break	0	0	0.000000	1.354515	0	0	0	0	ThoughtProbe	0.403128	0.605072	1	35	35
495.023438	1.279891	city	10	1	1.289901	1.289901	0	1	0	0	CorrectCommission	0.072924	0.609045	1	0	3.497500e+01
496.323181	1.319577	city	4	1	1.329229	1.329229	0	1	0	0	CorrectCommission	0.273906	0.623001	1	0	3.495000e+01
497.656006	1.346049	city	3	1	1.185494	1.185494	0	1	0	0	CorrectCommission	0.460647	0.645350	1	0	3.492500e+01
498.982208	1.306409	city	10	1	1.129609	1.129609	0	1	0	0	CorrectCommission	0.746241	0.673702	0	0	3.490000e+01
500.281891	1.292906	mountain	1	0	0.000000	1.116672	1	0	0	0	CorrectOmission	0.812356	0.705253	0	0	3.487500e+01
501.581451	1.306228	city	10	1	1.233123	1.233123	0	1	0	0	CorrectCommission	0.217238	0.737174	0	0	3.485000e+01
502.894348	1.319597	city	6	1	1.565404	1.565404	0	1	0	0	CorrectCommission	1.480870	0.766997	0	0	3.482500e+01
504.253906	1.399513	city	1	1	1.040599	1.040599	0	1	0	0	CorrectCommission	1.201125	0.792988	0	0	3.480000e+01
505.593475	1.279600	mountain	6	0	0.000000	0.933140	1	0	0	0	CorrectOmission	1.750291	0.814393	0	0	3.477500e+01
506.893036	1.319548	city	8	1	1.093700	1.093700	0	1	0	0	CorrectCommission	0.929752	0.831482	0	0	3.475000e+01
508.199188	1.292746	city	7	1	1.372956	1.372956	0	1	0	0	CorrectCommission	0.497369	0.845520	0	0	3.472500e+01
509.505432	1.319744	city	6	1	1.182050	1.182050	0	1	0	0	CorrectCommission	0.478245	0.858472	0	0	3.470000e+01
510.811768	1.292889	city	10	1	1.070968	1.070968	0	1	0	0	CorrectCommission	1.045923	0.872692	0	0	3.467500e+01
512.098022	1.279594	city	6	1	1.395478	1.395478	0	1	0	0	CorrectCommission	0.612468	0.890555	0	0	3.465000e+01
513.404175	1.332721	city	10	1	1.393932	1.393932	0	1	0	0	CorrectCommission	0.604569	0.914089	0	0	3.462500e+01
514.756958	1.372885	mountain	9	0	0.000000	1.202605	1	0	0	0	CorrectOmission	0.373202	0.944711	0	0	3.460000e+01
516.109924	1.333051	city	1	1	1.024548	1.024548	0	1	0	0	CorrectCommission	1.283153	0.983038	0	0	3.457500e+01
517.436218	1.319569	city	7	0	0.000000	1.062815	0	0	0	1	OmissionError	1.087593	1.028746	0	0	3.455000e+01
518.769104	1.346219	city	8	1	1.252954	1.252954	0	1	0	0	CorrectCommission	0.115893	1.080663	0	0	3.452500e+01
520.095276	1.306132	city	4	1	1.530516	1.530516	0	1	0	0	CorrectCommission	1.302574	1.136898	0	0	3.450000e+01
521.388184	1.279691	city	10	1	1.527513	1.527513	0	1	0	0	CorrectCommission	1.287229	1.195037	0	0	3.447500e+01
522.701172	1.346239	city	9	1	1.553432	1.553432	0	1	0	0	CorrectCommission	1.419688	1.252544	0	0	3.445000e+01
524.047424	1.346198	city	2	1	1.394132	1.394132	0	1	0	0	CorrectCommission	0.605592	1.307108	0	0	3.442500e+01
525.400269	1.359501	city	9	1	1.905027	1.905027	0	1	0	0	CorrectCommission	3.216497	1.357138	0	0	3.440000e+01
526.726379	1.292801	city	7	1	1.753061	1.753061	0	1	0	0	CorrectCommission	2.439884	1.402155	0	0	3.437500e+01
528.025940	1.306248	city	1	1	1.311911	1.311911	0	1	0	0	CorrectCommission	0.185403	1.443467	0	0	3.435000e+01
529.358887	1.359705	city	10	1	1.503143	1.503143	0	1	0	0	CorrectCommission	1.162685	1.484615	0	0	3.432500e+01
530.698486	1.319414	city	7	1	1.429620	1.429620	0	1	0	0	CorrectCommission	0.786950	1.531731	0	0	3.430000e+01
532.038025	1.359705	city	5	1	1.536115	1.536115	0	1	0	0	CorrectCommission	1.331188	1.593817	0	0	3.427500e+01
533.377686	1.319592	city	4	1	1.982380	1.982380	0	1	0	0	CorrectCommission	3.611805	1.682684	0	0	3.425000e+01
534.690491	1.306048	city	6	1	1.675780	1.675780	0	1	0	0	CorrectCommission	2.044940	1.812382	0	0	3.422500e+01
536.023376	1.359720	city	5	1	1.664535	1.664535	0	1	0	0	CorrectCommission	1.987474	1.998386	0	0	3.420000e+01
537.363037	1.319584	city	8	1	1.449066	1.449066	0	1	0	0	CorrectCommission	0.886328	2.255912	0	0	3.417500e+01
538.702515	1.359370	city	6	1	1.369348	1.369348	0	1	0	0	CorrectCommission	0.478933	2.598031	0	0	3.415000e+01
540.035400	1.306420	city	8	1	1.320488	1.320488	0	1	0	0	CorrectCommission	0.229235	3.033522	0	0	3.412500e+01
541.348267	1.319379	city	6	1	1.112809	1.112809	0	1	0	0	CorrectCommission	0.832099	3.564893	0	0	3.410000e+01
542.701172	1.386399	city	7	1	1.265548	1.265548	0	1	0	0	CorrectCommission	0.051532	4.186970	0	0	3.407500e+01
544.067383	1.346034	city	9	1	1.019278	1.019278	0	1	0	0	CorrectCommission	1.310084	4.886493	0	0	3.405000e+01
545.413635	1.346387	city	3	1	1.776414	1.776414	0	1	0	0	CorrectCommission	2.559227	5.642577	0	0	3.402500e+01
546.086792	9.677283	break	0	0	0.000000	2.533550	0	0	0	0	ThoughtProbe	6.428538	6.428538	0	34	34
