onset	duration	trial_type	image_type	Press	ReactionTime	ReactionTime_Interpolated	CorrectOmission	CorrectCommission	CommissionError	OmissionError	response_type	nonsmoothVarianceTimeCourse	VarianceTimeCourse	In_the_Zone	ThoughtProbe	ThoughtProbe_Interpolated
0.659904	1.292894	city	6	1	1.097568	1.097568	0	1	0	0	CorrectCommission	0.470521	0.470521	1	0	49
1.946141	1.279580	city	2	1	0.863404	0.863404	0	1	0	0	CorrectCommission	1.232963	0.577103	1	0	49
3.225720	1.279578	mountain	3	0	0.000000	1.027569	1	0	0	0	CorrectOmission	0.698438	0.679732	1	0	49
4.511958	1.292899	city	8	1	1.147989	1.147989	0	1	0	0	CorrectCommission	0.306349	0.774735	1	0	49
5.811529	1.306242	city	3	1	0.782589	0.782589	0	1	0	0	CorrectCommission	1.496096	0.858878	0	0	49
7.104359	1.279417	city	7	1	0.753803	0.753803	0	1	0	0	CorrectCommission	1.589826	0.929577	0	0	49
8.383948	1.279763	city	1	1	1.675003	1.675003	0	1	0	0	CorrectCommission	1.409617	0.985043	0	0	49
9.678039	1.308418	city	7	1	1.608002	1.608002	0	1	0	0	CorrectCommission	1.191459	1.024398	0	0	49
10.984201	1.303907	city	3	1	1.713037	1.713037	0	1	0	0	CorrectCommission	1.533458	1.047649	0	0	49
12.282675	1.293038	city	5	1	1.358727	1.358727	0	1	0	0	CorrectCommission	0.379816	1.055702	0	0	49
13.568984	1.279581	city	8	1	0.769693	0.769693	0	1	0	0	CorrectCommission	1.538089	1.050213	0	0	49
14.848577	1.279603	mountain	2	1	0.495025	0.495025	0	0	1	0	CommissionError	2.432411	1.033426	0	0	49
16.128157	1.279558	city	5	1	1.180276	1.180276	0	1	0	0	CorrectCommission	0.201224	1.007946	0	0	49
17.414310	1.292750	city	3	1	1.740621	1.740621	0	1	0	0	CorrectCommission	1.623271	0.976577	0	0	49
18.700478	1.279582	city	4	1	1.281800	1.281800	0	1	0	0	CorrectCommission	0.129342	0.941952	0	0	49
19.980047	1.279560	mountain	6	0	0.000000	1.123433	1	0	0	0	CorrectOmission	0.386303	0.906467	0	0	49
21.259705	1.279755	city	5	1	1.027484	1.027484	0	1	0	0	CorrectCommission	0.698715	0.872001	0	0	49
22.539371	1.279579	city	6	1	0.755918	0.755918	0	1	0	0	CorrectCommission	1.582940	0.839900	0	0	49
23.818947	1.279571	city	3	1	1.290837	1.290837	0	1	0	0	CorrectCommission	0.158767	0.810937	0	0	49
25.098438	1.279414	city	8	1	0.909615	0.909615	0	1	0	0	CorrectCommission	1.082498	0.785405	1	0	49
26.377981	1.279669	city	10	1	1.522641	1.522641	0	1	0	0	CorrectCommission	0.913525	0.763173	1	0	49
27.677567	1.319503	city	1	1	1.252428	1.252428	0	1	0	0	CorrectCommission	0.033705	0.743859	1	0	49
28.983768	1.292900	city	2	1	0.927150	0.927150	0	1	0	0	CorrectCommission	1.025404	0.726986	1	0	49
30.270029	1.279621	city	6	1	1.502641	1.502641	0	1	0	0	CorrectCommission	0.848404	0.712007	1	0	49
31.549606	1.279533	city	7	1	0.962121	0.962121	0	1	0	0	CorrectCommission	0.911539	0.698512	1	0	49
32.829235	1.279725	city	3	1	1.302201	1.302201	0	1	0	0	CorrectCommission	0.195766	0.686235	1	0	49
34.108894	1.279592	city	10	1	1.607300	1.607300	0	1	0	0	CorrectCommission	1.189174	0.675094	1	0	49
35.421753	1.346127	city	4	1	1.311114	1.311114	0	1	0	0	CorrectCommission	0.224789	0.665159	1	0	49
36.741337	1.293041	city	10	1	1.514519	1.514519	0	1	0	0	CorrectCommission	0.887078	0.656681	1	0	49
38.027641	1.279570	mountain	10	1	1.071216	1.071216	0	0	1	0	CommissionError	0.556324	0.649981	1	0	49
39.313881	1.292911	city	9	1	1.028306	1.028306	0	1	0	0	CorrectCommission	0.696038	0.645417	1	0	49
40.620090	1.319503	city	5	1	1.323099	1.323099	0	1	0	0	CorrectCommission	0.263812	0.643303	1	0	49
41.932980	1.306276	city	9	1	0.926805	0.926805	0	1	0	0	CorrectCommission	1.026529	0.643831	1	0	49
43.232494	1.292754	city	10	1	1.195806	1.195806	0	1	0	0	CorrectCommission	0.150657	0.646988	1	0	49
44.551975	1.346210	city	2	1	1.583025	1.583025	0	1	0	0	CorrectCommission	1.110133	0.652641	1	0	49
45.884857	1.319551	city	4	1	1.248081	1.248081	0	1	0	0	CorrectCommission	0.019552	0.660363	1	0	49
47.211082	1.332901	city	3	1	1.501410	1.501410	0	1	0	0	CorrectCommission	0.844394	0.669601	1	0	49
48.517395	1.279727	city	2	1	1.498371	1.498371	0	1	0	0	CorrectCommission	0.834500	0.679617	1	0	49
49.797058	1.279594	city	3	1	1.099749	1.099749	0	1	0	0	CorrectCommission	0.463418	0.689631	1	0	49
51.076565	1.279421	city	6	1	1.570262	1.570262	0	1	0	0	CorrectCommission	1.068579	0.698850	1	0	49
52.389381	1.346213	city	2	1	1.222890	1.222890	0	1	0	0	CorrectCommission	0.062471	0.706578	1	0	49
53.709026	1.293080	city	4	1	0.765124	0.765124	0	1	0	0	CorrectCommission	1.552962	0.712315	1	0	49
55.002033	1.292928	city	5	1	1.390054	1.390054	0	1	0	0	CorrectCommission	0.481820	0.715744	1	0	49
56.301601	1.306209	city	3	1	1.664432	1.664432	0	1	0	0	CorrectCommission	1.375199	0.716845	1	0	49
57.607834	1.306256	city	7	1	1.379613	1.379613	0	1	0	0	CorrectCommission	0.447822	0.715773	1	0	49
62.066380	7.610833	break	0	1	1.118510	1.118510	0	0	0	0	ThoughtProbe	0.402332	0.712888	1	49	49
66.518234	1.292885	city	2	1	1.477667	1.477667	0	1	0	0	CorrectCommission	0.767087	0.708614	1	0	4.945000e+01
67.811089	1.292813	city	3	1	1.125678	1.125678	0	1	0	0	CorrectCommission	0.378995	0.703409	1	0	4.990000e+01
69.103958	1.292934	city	1	1	0.992339	0.992339	0	1	0	0	CorrectCommission	0.813149	0.697677	1	0	5.035000e+01
70.403610	1.306362	city	10	1	0.902229	0.902229	0	1	0	0	CorrectCommission	1.106547	0.691717	1	0	5.080000e+01
71.696510	1.279438	mountain	8	0	0.000000	1.012509	1	0	0	0	CorrectOmission	0.747473	0.685716	1	0	5.125000e+01
73.009384	1.346310	city	6	1	1.132406	1.132406	0	1	0	0	CorrectCommission	0.357089	0.679806	1	0	5.170000e+01
74.335579	1.306079	city	7	1	1.071144	1.071144	0	1	0	0	CorrectCommission	0.556557	0.674081	1	0	5.215000e+01
75.668472	1.359714	city	2	1	1.638741	1.638741	0	1	0	0	CorrectCommission	1.291547	0.668624	1	0	5.260000e+01
76.994698	1.292741	city	10	1	1.256782	1.256782	0	1	0	0	CorrectCommission	0.047882	0.663567	1	0	5.305000e+01
78.281105	1.280080	mountain	8	0	0.000000	1.172147	1	0	0	0	CorrectOmission	0.227691	0.659250	1	0	5.350000e+01
79.560776	1.279258	city	3	1	1.085528	1.085528	0	1	0	0	CorrectCommission	0.509723	0.656149	1	0	5.395000e+01
80.846855	1.292897	city	1	1	0.697619	0.697619	0	1	0	0	CorrectCommission	1.772763	0.654964	1	0	5.440000e+01
82.146339	1.306071	city	6	1	1.608670	1.608670	0	1	0	0	CorrectCommission	1.193636	0.656525	1	0	5.485000e+01
83.459160	1.319562	city	10	1	1.229478	1.229478	0	1	0	0	CorrectCommission	0.041020	0.661734	1	0	5.530000e+01
84.758728	1.279584	city	5	1	1.371297	1.371297	0	1	0	0	CorrectCommission	0.420744	0.671366	1	0	5.575000e+01
86.045067	1.293087	city	7	1	1.408794	1.408794	0	1	0	0	CorrectCommission	0.542837	0.685820	1	0	5.620000e+01
87.331314	1.279413	city	9	1	1.230784	1.230784	0	1	0	0	CorrectCommission	0.036766	0.704989	1	0	5.665000e+01
88.610901	1.279750	city	1	1	1.087462	1.087462	0	1	0	0	CorrectCommission	0.503427	0.728083	1	0	5.710000e+01
89.897141	1.292732	mountain	8	0	0.000000	1.099031	1	0	0	0	CorrectOmission	0.465759	0.753660	1	0	5.755000e+01
91.189964	1.292919	city	2	1	1.061006	1.061006	0	1	0	0	CorrectCommission	0.589568	0.779693	1	0	58
92.476212	1.279581	city	5	1	0.768903	0.768903	0	1	0	0	CorrectCommission	1.540661	0.803855	0	0	5.845000e+01
93.755798	1.279582	city	1	1	1.735344	1.735344	0	1	0	0	CorrectCommission	1.606089	0.823786	0	0	5.890000e+01
95.035370	1.279568	city	2	1	1.408059	1.408059	0	1	0	0	CorrectCommission	0.540443	0.837450	0	0	5.935000e+01
96.321609	1.292912	city	5	1	1.151729	1.151729	0	1	0	0	CorrectCommission	0.294172	0.843470	0	0	5.980000e+01
97.607895	1.279658	city	3	1	1.741161	1.741161	0	1	0	0	CorrectCommission	1.625028	0.841277	0	0	6.025000e+01
98.900887	1.306323	city	8	1	1.965048	1.965048	0	1	0	0	CorrectCommission	2.354008	0.831174	0	0	6.070000e+01
100.193840	1.279581	city	10	1	1.466725	1.466725	0	1	0	0	CorrectCommission	0.731460	0.814321	0	0	6.115000e+01
101.479988	1.292726	city	6	1	1.261136	1.261136	0	1	0	0	CorrectCommission	0.062059	0.792571	1	0	6.160000e+01
102.792847	1.332983	city	4	1	1.032569	1.032569	0	1	0	0	CorrectCommission	0.682159	0.768130	1	0	6.205000e+01
104.105843	1.293006	city	5	1	1.328101	1.328101	0	1	0	0	CorrectCommission	0.280100	0.743264	1	0	6.250000e+01
105.418777	1.332865	city	7	1	1.342782	1.342782	0	1	0	0	CorrectCommission	0.327899	0.720105	1	0	6.295000e+01
106.731613	1.292816	city	8	1	0.937296	0.937296	0	1	0	0	CorrectCommission	0.992370	0.700376	1	0	6.340000e+01
108.017822	1.279594	city	7	1	1.458212	1.458212	0	1	0	0	CorrectCommission	0.703740	0.685308	1	0	6.385000e+01
109.297394	1.279548	city	2	1	1.301315	1.301315	0	1	0	0	CorrectCommission	0.192884	0.675657	1	0	6.430000e+01
110.603622	1.332918	city	10	1	0.995328	0.995328	0	1	0	0	CorrectCommission	0.803416	0.671770	1	0	6.475000e+01
111.909836	1.279499	city	4	1	1.554559	1.554559	0	1	0	0	CorrectCommission	1.017448	0.673630	1	0	6.520000e+01
113.196121	1.293077	city	9	1	1.104518	1.104518	0	1	0	0	CorrectCommission	0.447893	0.680960	1	0	6.565000e+01
114.482460	1.279594	city	4	1	1.575606	1.575606	0	1	0	0	CorrectCommission	1.085978	0.693273	1	0	6.610000e+01
115.808701	1.372887	city	3	1	1.249538	1.249538	0	1	0	0	CorrectCommission	0.024295	0.709878	1	0	6.655000e+01
119.474159	5.958042	break	0	1	0.988958	0.988958	0	0	0	0	ThoughtProbe	0.824157	0.729859	1	67	67
123.106209	1.306046	mountain	1	0	0.000000	1.077835	1	0	0	0	CorrectOmission	0.534771	0.752022	1	0	6.678261e+01
124.399055	1.279659	city	4	1	1.177630	1.177630	0	1	0	0	CorrectCommission	0.209837	0.774980	1	0	6.656522e+01
125.692009	1.306236	city	2	1	0.949804	0.949804	0	1	0	0	CorrectCommission	0.951645	0.797159	0	0	6.634783e+01
127.004868	1.319489	city	3	1	0.926760	0.926760	0	1	0	0	CorrectCommission	1.026675	0.816923	0	0	6.613043e+01
128.311066	1.292906	city	10	1	0.818041	0.818041	0	1	0	0	CorrectCommission	1.380666	0.832756	0	0	6.591304e+01
129.604111	1.293165	city	8	1	0.832921	0.832921	0	1	0	0	CorrectCommission	1.332217	0.843420	0	0	6.569565e+01
130.897095	1.292815	city	2	1	1.540360	1.540360	0	1	0	0	CorrectCommission	0.971218	0.848096	0	0	6.547826e+01
132.189880	1.292751	city	6	1	1.329758	1.329758	0	1	0	0	CorrectCommission	0.285495	0.846503	0	0	6.526087e+01
133.516098	1.359703	city	9	1	0.938646	0.938646	0	1	0	0	CorrectCommission	0.987974	0.838919	0	0	6.504348e+01
134.849075	1.306228	city	1	1	0.675823	0.675823	0	1	0	0	CorrectCommission	1.843730	0.826141	0	0	6.482609e+01
136.155304	1.306248	city	8	1	1.389454	1.389454	0	1	0	0	CorrectCommission	0.479863	0.809387	0	0	6.460870e+01
137.461472	1.306078	city	4	1	1.274487	1.274487	0	1	0	0	CorrectCommission	0.105529	0.790207	1	0	6.439130e+01
138.767715	1.306399	city	6	1	0.942028	0.942028	0	1	0	0	CorrectCommission	0.976961	0.770283	1	0	6.417391e+01
140.087280	1.332744	city	1	1	1.686777	1.686777	0	1	0	0	CorrectCommission	1.447953	0.751230	1	0	6.395652e+01
141.406769	1.306228	city	10	1	1.335765	1.335765	0	1	0	0	CorrectCommission	0.305053	0.734490	1	0	6.373913e+01
142.713058	1.306369	mountain	7	1	1.227992	1.227992	0	0	1	0	CommissionError	0.045859	0.721249	1	0	6.352174e+01
144.006073	1.279637	mountain	5	1	1.183076	1.183076	0	0	1	0	CommissionError	0.192107	0.712308	1	0	6.330435e+01
145.285660	1.279549	city	8	1	1.741978	1.741978	0	1	0	0	CorrectCommission	1.627687	0.708036	1	0	6.308696e+01
146.578568	1.306254	city	7	1	1.427541	1.427541	0	1	0	0	CorrectCommission	0.603875	0.708398	1	0	6.286957e+01
147.918137	1.372891	city	2	1	1.278362	1.278362	0	1	0	0	CorrectCommission	0.118146	0.713029	1	0	6.265217e+01
149.244278	1.279404	city	8	1	1.583512	1.583512	0	1	0	0	CorrectCommission	1.111720	0.721288	1	0	6.243478e+01
150.543854	1.319729	city	9	1	1.414431	1.414431	0	1	0	0	CorrectCommission	0.561189	0.732266	1	0	6.221739e+01
151.870087	1.332734	city	6	1	0.962295	0.962295	0	1	0	0	CorrectCommission	0.910972	0.744985	1	0	62
153.182999	1.293115	city	1	1	1.320144	1.320144	0	1	0	0	CorrectCommission	0.254190	0.758418	1	0	6.178261e+01
154.469315	1.279518	city	3	1	1.084980	1.084980	0	1	0	0	CorrectCommission	0.511508	0.771627	1	0	6.156522e+01
155.755463	1.292770	city	5	1	0.942680	0.942680	0	1	0	0	CorrectCommission	0.974839	0.783835	1	0	6.134783e+01
157.048294	1.292897	mountain	1	1	0.581113	0.581113	0	0	1	0	CommissionError	2.152107	0.794521	1	0	6.113043e+01
158.341293	1.293084	city	4	1	1.143562	1.143562	0	1	0	0	CorrectCommission	0.320764	0.803408	0	0	6.091304e+01
159.654282	1.332896	city	2	1	1.047352	1.047352	0	1	0	0	CorrectCommission	0.634026	0.810581	0	0	6.069565e+01
160.980469	1.319474	city	9	1	1.537589	1.537589	0	1	0	0	CorrectCommission	0.962194	0.816323	0	0	6.047826e+01
162.299942	1.319469	city	1	1	1.102517	1.102517	0	1	0	0	CorrectCommission	0.454406	0.821101	0	0	6.026087e+01
163.619553	1.319758	city	3	1	0.894793	0.894793	0	1	0	0	CorrectCommission	1.130759	0.825462	0	0	6.004348e+01
164.939117	1.319371	city	1	1	1.503510	1.503510	0	1	0	0	CorrectCommission	0.851233	0.829918	0	0	5.982609e+01
166.265335	1.333062	city	8	1	1.141838	1.141838	0	1	0	0	CorrectCommission	0.326378	0.834954	0	0	5.960870e+01
167.571655	1.279589	city	2	1	1.102192	1.102192	0	1	0	0	CorrectCommission	0.455464	0.840982	0	0	5.939130e+01
168.877853	1.332796	city	5	1	1.765546	1.765546	0	1	0	0	CorrectCommission	1.704425	0.848295	0	0	5.917391e+01
170.217407	1.346338	city	6	1	1.426172	1.426172	0	1	0	0	CorrectCommission	0.599420	0.857136	0	0	5.895652e+01
171.530365	1.279550	city	1	1	0.923678	0.923678	0	1	0	0	CorrectCommission	1.036708	0.867789	0	0	5.873913e+01
172.823196	1.306129	city	5	1	1.014065	1.014065	0	1	0	0	CorrectCommission	0.742408	0.880485	0	0	5.852174e+01
174.116043	1.279552	city	3	1	1.617249	1.617249	0	1	0	0	CorrectCommission	1.221568	0.895426	0	0	5.830435e+01
175.409012	1.306395	city	6	1	1.139396	1.139396	0	1	0	0	CorrectCommission	0.334329	0.912690	0	0	5.808696e+01
176.708603	1.292775	city	7	1	1.645970	1.645970	0	1	0	0	CorrectCommission	1.315084	0.932228	0	0	5.786957e+01
178.008072	1.306190	city	2	1	1.348735	1.348735	0	1	0	0	CorrectCommission	0.347284	0.953657	0	0	5.765217e+01
179.327728	1.333098	city	3	1	1.042069	1.042069	0	1	0	0	CorrectCommission	0.651226	0.976366	0	0	5.743478e+01
180.640625	1.292701	city	8	1	0.931081	0.931081	0	1	0	0	CorrectCommission	1.012605	0.999379	0	0	5.721739e+01
184.072754	5.571560	break	0	1	0.591936	0.591936	0	0	0	0	ThoughtProbe	2.116867	1.021497	0	57	57
187.518311	1.319563	mountain	9	0	0.000000	1.105032	1	0	0	0	CorrectOmission	0.446218	1.041342	0	0	5.665000e+01
188.817947	1.279710	city	4	1	1.565163	1.565163	0	1	0	0	CorrectCommission	1.051977	1.057629	0	0	5.630000e+01
190.110916	1.306234	city	9	1	1.067124	1.067124	0	1	0	0	CorrectCommission	0.569647	1.069187	0	0	5.595000e+01
191.423813	1.319556	city	10	1	0.690546	0.690546	0	1	0	0	CorrectCommission	1.795790	1.075267	0	0	5.560000e+01
192.723358	1.279518	city	9	1	0.591323	0.591323	0	1	0	0	CorrectCommission	2.118864	1.075557	0	0	5.525000e+01
194.016190	1.306149	city	2	1	1.365178	1.365178	0	1	0	0	CorrectCommission	0.400823	1.070297	0	0	5.490000e+01
195.315704	1.292881	city	3	1	0.914294	0.914294	0	1	0	0	CorrectCommission	1.067264	1.060279	0	0	5.455000e+01
196.635345	1.346389	mountain	5	1	0.513867	0.513867	0	0	1	0	CommissionError	2.371062	1.046636	0	0	5.420000e+01
197.981659	1.346244	city	6	1	1.106343	1.106343	0	1	0	0	CorrectCommission	0.441950	1.030700	0	0	5.385000e+01
199.321213	1.332870	city	3	1	1.244504	1.244504	0	1	0	0	CorrectCommission	0.007906	1.013835	0	0	5.350000e+01
200.634018	1.292747	city	2	1	1.578461	1.578461	0	1	0	0	CorrectCommission	1.095274	0.997132	0	0	5.315000e+01
201.953583	1.346383	city	6	1	1.079212	1.079212	0	1	0	0	CorrectCommission	0.530287	0.981239	0	0	5.280000e+01
203.286530	1.319507	city	7	1	1.732734	1.732734	0	1	0	0	CorrectCommission	1.597589	0.966395	0	0	5.245000e+01
204.599442	1.306317	city	8	1	1.102889	1.102889	0	1	0	0	CorrectCommission	0.453196	0.952329	0	0	5.210000e+01
205.919052	1.332902	city	2	1	1.686476	1.686476	0	1	0	0	CorrectCommission	1.446972	0.938503	0	0	5.175000e+01
207.231949	1.292886	city	1	1	1.188256	1.188256	0	1	0	0	CorrectCommission	0.175239	0.924183	0	0	5.140000e+01
208.524857	1.292921	city	6	1	0.592097	0.592097	0	1	0	0	CorrectCommission	2.116342	0.908704	0	0	5.105000e+01
209.817749	1.292890	city	1	1	1.400497	1.400497	0	1	0	0	CorrectCommission	0.515820	0.891519	0	0	5.070000e+01
211.123901	1.319406	city	2	1	0.789564	0.789564	0	1	0	0	CorrectCommission	1.473388	0.872488	0	0	5.035000e+01
212.430161	1.293100	city	8	1	1.222091	1.222091	0	1	0	0	CorrectCommission	0.065073	0.851745	0	0	50
213.736389	1.319371	city	10	1	1.626161	1.626161	0	1	0	0	CorrectCommission	1.250588	0.829782	0	0	4.965000e+01
215.049194	1.306239	city	4	1	1.448470	1.448470	0	1	0	0	CorrectCommission	0.672022	0.807247	0	0	4.930000e+01
216.375519	1.346415	city	10	1	0.919045	0.919045	0	1	0	0	CorrectCommission	1.051795	0.784967	1	0	4.895000e+01
217.695175	1.292899	city	8	1	1.412562	1.412562	0	1	0	0	CorrectCommission	0.555103	0.763712	1	0	4.860000e+01
218.981369	1.279470	mountain	10	1	1.085231	1.085231	0	0	1	0	CommissionError	0.510691	0.744136	1	0	4.825000e+01
220.260941	1.279689	city	6	1	1.201348	1.201348	0	1	0	0	CorrectCommission	0.132611	0.726694	1	0	4.790000e+01
221.567245	1.332895	city	2	1	1.474319	1.474319	0	1	0	0	CorrectCommission	0.756185	0.711629	1	0	4.755000e+01
222.900055	1.332732	city	6	1	1.686390	1.686390	0	1	0	0	CorrectCommission	1.446694	0.699034	1	0	4.720000e+01
224.246216	1.359599	city	2	1	1.027846	1.027846	0	1	0	0	CorrectCommission	0.697537	0.688876	1	0	4.685000e+01
225.586411	1.320783	city	6	1	1.325532	1.325532	0	1	0	0	CorrectCommission	0.271734	0.681086	1	0	4.650000e+01
226.899368	1.305135	city	7	1	1.076999	1.076999	0	1	0	0	CorrectCommission	0.537495	0.675644	1	0	4.615000e+01
228.205063	1.306248	city	9	1	1.589409	1.589409	0	1	0	0	CorrectCommission	1.130921	0.672564	1	0	4.580000e+01
229.524628	1.332881	city	4	1	1.217604	1.217604	0	1	0	0	CorrectCommission	0.079682	0.671885	1	0	4.545000e+01
230.850769	1.319399	city	2	1	1.452578	1.452578	0	1	0	0	CorrectCommission	0.685396	0.673723	1	0	4.510000e+01
232.150253	1.279586	city	9	1	1.698092	1.698092	0	1	0	0	CorrectCommission	1.484796	0.678107	1	0	4.475000e+01
233.451477	1.322842	city	2	1	1.272427	1.272427	0	1	0	0	CorrectCommission	0.098823	0.684984	1	0	4.440000e+01
234.757690	1.289598	city	4	1	1.257840	1.257840	0	1	0	0	CorrectCommission	0.051327	0.694177	1	0	4.405000e+01
236.049026	1.293071	city	2	1	1.640087	1.640087	0	1	0	0	CorrectCommission	1.295928	0.705345	1	0	4.370000e+01
237.341965	1.292808	city	1	1	1.038551	1.038551	0	1	0	0	CorrectCommission	0.662682	0.717905	1	0	4.335000e+01
240.440964	4.905184	break	0	0	0.000000	1.185373	0	0	0	0	ThoughtProbe	0.184628	0.731214	1	43	43
243.546661	1.306208	city	6	1	1.338867	1.338867	0	1	0	0	CorrectCommission	0.315153	0.744515	1	0	4.367647e+01
244.872879	1.346245	city	2	1	0.757349	0.757349	0	1	0	0	CorrectCommission	1.578278	0.757089	1	0	4.435294e+01
246.232452	1.372888	city	9	1	1.778775	1.778775	0	1	0	0	CorrectCommission	1.747502	0.768250	1	0	4.502941e+01
247.598663	1.359534	city	10	1	1.146153	1.146153	0	1	0	0	CorrectCommission	0.312329	0.777488	1	0	4.570588e+01
248.931503	1.306151	city	4	1	1.506587	1.506587	0	1	0	0	CorrectCommission	0.861251	0.784466	1	0	4.638235e+01
250.277649	1.386154	city	6	1	1.171364	1.171364	0	1	0	0	CorrectCommission	0.230240	0.788942	1	0	4.705882e+01
251.630585	1.319707	city	10	1	1.564824	1.564824	0	1	0	0	CorrectCommission	1.050871	0.790814	1	0	4.773529e+01
252.970184	1.359485	mountain	3	0	0.000000	1.392409	1	0	0	0	CorrectOmission	0.489488	0.790043	1	0	4.841176e+01
254.296387	1.292930	city	9	1	1.028249	1.028249	0	1	0	0	CorrectCommission	0.696224	0.786691	1	0	4.908824e+01
255.595932	1.306161	city	7	1	0.846470	0.846470	0	1	0	0	CorrectCommission	1.288098	0.780918	1	0	4.976471e+01
256.908783	1.319553	city	6	1	1.510914	1.510914	0	1	0	0	CorrectCommission	0.875339	0.773049	1	0	5.044118e+01
258.235077	1.333036	city	8	1	1.061702	1.061702	0	1	0	0	CorrectCommission	0.587301	0.763619	1	0	5.111765e+01
259.568054	1.332889	city	10	1	1.659591	1.659591	0	1	0	0	CorrectCommission	1.359435	0.753391	1	0	5.179412e+01
260.900940	1.332869	mountain	8	0	0.000000	1.577504	1	0	0	0	CorrectOmission	1.092160	0.743283	1	0	5.247059e+01
262.227142	1.319550	city	7	1	1.263699	1.263699	0	1	0	0	CorrectCommission	0.070405	0.734364	1	0	5.314706e+01
263.540070	1.306297	city	1	1	1.166433	1.166433	0	1	0	0	CorrectCommission	0.246295	0.727681	1	0	5.382353e+01
264.839661	1.292890	city	3	1	0.993641	0.993641	0	1	0	0	CorrectCommission	0.808909	0.724076	1	0	5.450000e+01
266.125824	1.279421	city	7	1	1.372812	1.372812	0	1	0	0	CorrectCommission	0.425678	0.724104	1	0	5.517647e+01
267.438721	1.346427	city	4	1	0.888083	0.888083	0	1	0	0	CorrectCommission	1.152607	0.727931	1	0	5.585294e+01
268.764984	1.306093	city	2	1	1.278188	1.278188	0	1	0	0	CorrectCommission	0.117579	0.735202	1	0	5.652941e+01
270.057892	1.279688	city	6	1	0.938111	0.938111	0	1	0	0	CorrectCommission	0.989716	0.745158	1	0	5.720588e+01
271.350769	1.306063	city	7	1	1.406968	1.406968	0	1	0	0	CorrectCommission	0.536890	0.756595	1	0	5.788235e+01
272.670319	1.333062	city	6	1	0.928133	0.928133	0	1	0	0	CorrectCommission	1.022205	0.768055	1	0	5.855882e+01
273.996643	1.319595	city	7	1	1.569555	1.569555	0	1	0	0	CorrectCommission	1.066278	0.777908	1	0	5.923529e+01
275.309570	1.306225	city	5	1	1.128708	1.128708	0	1	0	0	CorrectCommission	0.369128	0.784541	1	0	5.991176e+01
276.629120	1.332874	city	3	1	1.507877	1.507877	0	1	0	0	CorrectCommission	0.865452	0.786579	1	0	6.058824e+01
277.961945	1.332821	city	2	1	0.951745	0.951745	0	1	0	0	CorrectCommission	0.945324	0.782988	1	0	6.126471e+01
279.281525	1.306330	city	7	1	0.978369	0.978369	0	1	0	0	CorrectCommission	0.858634	0.773255	1	0	6.194118e+01
280.587738	1.306068	city	8	1	0.770659	0.770659	0	1	0	0	CorrectCommission	1.534942	0.757456	1	0	6.261765e+01
281.900635	1.319726	city	3	1	1.684711	1.684711	0	1	0	0	CorrectCommission	1.441226	0.736246	1	0	6.329412e+01
283.220276	1.319584	city	4	1	1.275311	1.275311	0	1	0	0	CorrectCommission	0.108213	0.710861	1	0	6.397059e+01
284.519775	1.279400	city	1	1	1.364089	1.364089	0	1	0	0	CorrectCommission	0.397277	0.682939	1	0	6.464706e+01
285.812592	1.306249	city	9	1	1.386061	1.386061	0	1	0	0	CorrectCommission	0.468818	0.654365	1	0	6.532353e+01
290.084534	7.237609	break	0	1	0.915983	0.915983	0	0	0	0	ThoughtProbe	1.061765	0.627080	1	66	66
294.389862	1.373044	city	4	1	1.174938	1.174938	0	1	0	0	CorrectCommission	0.218601	0.602866	1	0	6.576471e+01
295.716095	1.279410	city	6	1	1.178205	1.178205	0	1	0	0	CorrectCommission	0.207966	0.583274	1	0	6.552941e+01
297.028992	1.346403	city	7	1	1.073048	1.073048	0	1	0	0	CorrectCommission	0.550360	0.569465	1	0	6.529412e+01
298.341980	1.279580	city	5	1	1.036613	1.036613	0	1	0	0	CorrectCommission	0.668990	0.562170	1	0	6.505882e+01
299.634918	1.306265	city	1	1	1.223411	1.223411	0	1	0	0	CorrectCommission	0.060773	0.561692	1	0	6.482353e+01
300.961121	1.346191	mountain	7	1	1.008933	1.008933	0	0	1	0	CommissionError	0.759119	0.567947	1	0	6.458824e+01
302.327271	1.386099	city	7	1	1.157675	1.157675	0	1	0	0	CorrectCommission	0.274811	0.580473	1	0	6.435294e+01
303.686737	1.332823	city	10	1	1.472683	1.472683	0	1	0	0	CorrectCommission	0.750858	0.598524	1	0	6.411765e+01
305.026367	1.346408	city	6	1	1.585329	1.585329	0	1	0	0	CorrectCommission	1.117636	0.621091	1	0	6.388235e+01
306.365997	1.332881	city	5	1	1.188711	1.188711	0	1	0	0	CorrectCommission	0.173758	0.646955	1	0	6.364706e+01
307.758850	1.452852	city	2	1	1.272191	1.272191	0	1	0	0	CorrectCommission	0.098053	0.674777	1	0	6.341176e+01
309.138428	1.306260	mountain	3	0	0.000000	1.040923	1	0	0	0	CorrectOmission	0.654958	0.703122	1	0	6.317647e+01
310.464569	1.346065	city	5	1	1.007556	1.007556	0	1	0	0	CorrectCommission	0.763600	0.730607	1	0	6.294118e+01
311.797455	1.319677	city	4	1	1.684739	1.684739	0	1	0	0	CorrectCommission	1.441317	0.755979	1	0	6.270588e+01
313.123688	1.332771	city	3	1	1.097870	1.097870	0	1	0	0	CorrectCommission	0.469538	0.778245	1	0	6.247059e+01
314.463165	1.346207	city	7	1	1.800545	1.800545	0	1	0	0	CorrectCommission	1.818383	0.796796	1	0	6.223529e+01
315.849457	1.426349	city	1	1	1.255225	1.255225	0	1	0	0	CorrectCommission	0.042811	0.811401	0	0	62
317.235657	1.346080	city	5	1	1.696678	1.696678	0	1	0	0	CorrectCommission	1.480192	0.822298	0	0	6.176471e+01
318.595154	1.372889	city	10	1	1.545655	1.545655	0	1	0	0	CorrectCommission	0.988459	0.830030	0	0	6.152941e+01
319.921448	1.279741	city	8	1	1.287541	1.287541	0	1	0	0	CorrectCommission	0.148034	0.835395	0	0	6.129412e+01
321.207794	1.292921	city	7	1	0.882736	0.882736	0	1	0	0	CorrectCommission	1.170017	0.839306	0	0	6.105882e+01
322.507355	1.306225	city	1	1	1.406756	1.406756	0	1	0	0	CorrectCommission	0.536202	0.842560	0	0	6.082353e+01
323.840240	1.359537	city	4	1	1.021311	1.021311	0	1	0	0	CorrectCommission	0.718816	0.845841	0	0	6.058824e+01
325.159790	1.279575	city	1	1	1.586585	1.586585	0	1	0	0	CorrectCommission	1.121727	0.849562	0	0	6.035294e+01
326.452698	1.306240	city	2	1	1.088025	1.088025	0	1	0	0	CorrectCommission	0.501593	0.853842	0	0	6.011765e+01
327.772278	1.332924	city	1	1	1.634191	1.634191	0	1	0	0	CorrectCommission	1.276734	0.858570	0	0	5.988235e+01
329.111755	1.346031	city	8	1	1.164311	1.164311	0	1	0	0	CorrectCommission	0.253205	0.863418	0	0	5.964706e+01
330.437988	1.306421	city	4	1	0.739605	0.739605	0	1	0	0	CorrectCommission	1.636053	0.867989	0	0	5.941176e+01
331.744324	1.306216	city	1	1	1.480833	1.480833	0	1	0	0	CorrectCommission	0.777397	0.871801	0	0	5.917647e+01
333.070557	1.346254	city	4	1	1.014899	1.014899	0	1	0	0	CorrectCommission	0.739691	0.874456	0	0	5.894118e+01
334.403442	1.319541	city	8	1	1.332859	1.332859	0	1	0	0	CorrectCommission	0.295591	0.875654	0	0	5.870588e+01
335.716339	1.306245	city	4	1	1.741008	1.741008	0	1	0	0	CorrectCommission	1.624529	0.875238	0	0	5.847059e+01
337.015869	1.292831	city	8	1	1.509787	1.509787	0	1	0	0	CorrectCommission	0.871671	0.873190	0	0	5.823529e+01
340.034790	4.745010	break	0	1	0.888381	0.888381	0	0	0	0	ThoughtProbe	1.151637	0.869656	0	58	58
343.120453	1.426288	city	4	1	1.125695	1.125695	0	1	0	0	CorrectCommission	0.378939	0.864905	0	0	5.750000e+01
344.480011	1.292874	city	7	1	0.863599	0.863599	0	1	0	0	CorrectCommission	1.232328	0.859260	0	0	57
345.799561	1.346185	city	4	1	1.479522	1.479522	0	1	0	0	CorrectCommission	0.773129	0.853067	0	0	5.650000e+01
347.152435	1.359572	city	2	1	0.981475	0.981475	0	1	0	0	CorrectCommission	0.848521	0.846646	0	0	5.600000e+01
348.525391	1.386351	city	10	1	1.206727	1.206727	0	1	0	0	CorrectCommission	0.115098	0.840323	0	0	5.550000e+01
349.884918	1.332719	city	6	1	1.612436	1.612436	0	1	0	0	CorrectCommission	1.205897	0.834378	0	0	55
351.217773	1.332969	city	10	1	1.088597	1.088597	0	1	0	0	CorrectCommission	0.499731	0.829051	0	0	5.450000e+01
352.577332	1.386132	mountain	7	1	0.739513	0.739513	0	0	1	0	CommissionError	1.636355	0.824643	0	0	54
353.930267	1.319757	city	3	1	0.833561	0.833561	0	1	0	0	CorrectCommission	1.330133	0.821432	0	0	5.350000e+01
355.236572	1.292878	city	2	1	1.176540	1.176540	0	1	0	0	CorrectCommission	0.213385	0.819781	0	0	53
356.536163	1.306261	city	8	1	1.376902	1.376902	0	1	0	0	CorrectCommission	0.438996	0.820053	0	0	5.250000e+01
357.855652	1.332709	city	9	1	1.302061	1.302061	0	1	0	0	CorrectCommission	0.195313	0.822556	0	0	5.200000e+01
359.195190	1.346360	city	4	1	1.752741	1.752741	0	1	0	0	CorrectCommission	1.662733	0.827480	0	0	5.150000e+01
360.521393	1.306098	city	5	1	1.443769	1.443769	0	1	0	0	CorrectCommission	0.656716	0.834793	0	0	51
361.834320	1.319744	city	6	1	1.127568	1.127568	0	1	0	0	CorrectCommission	0.372841	0.844301	0	0	5.050000e+01
363.153992	1.319574	city	10	1	1.708687	1.708687	0	1	0	0	CorrectCommission	1.519291	0.855496	0	0	50
364.506775	1.386025	city	1	1	1.301696	1.301696	0	1	0	0	CorrectCommission	0.194123	0.867599	0	0	4.950000e+01
365.872986	1.346406	city	9	1	0.867702	0.867702	0	1	0	0	CorrectCommission	1.218968	0.879623	0	0	49
367.212646	1.332904	city	4	1	1.431488	1.431488	0	1	0	0	CorrectCommission	0.616729	0.890347	0	0	4.850000e+01
368.552124	1.346050	city	6	1	1.813199	1.813199	0	1	0	0	CorrectCommission	1.859584	0.898439	0	0	48
369.924927	1.399527	city	3	1	1.328609	1.328609	0	1	0	0	CorrectCommission	0.281752	0.902530	0	0	4.750000e+01
371.297882	1.346386	city	5	1	1.087733	1.087733	0	1	0	0	CorrectCommission	0.502544	0.901440	0	0	47
372.630859	1.319568	city	3	1	1.383630	1.383630	0	1	0	0	CorrectCommission	0.460901	0.894286	0	0	4.650000e+01
373.977112	1.372923	mountain	7	1	0.652877	0.652877	0	0	1	0	CommissionError	1.918441	0.880649	0	0	46
375.336639	1.346152	city	6	1	1.830566	1.830566	0	1	0	0	CorrectCommission	1.916133	0.860724	0	0	4.550000e+01
376.676147	1.332847	city	5	1	1.658314	1.658314	0	1	0	0	CorrectCommission	1.355275	0.835417	0	0	45
378.015839	1.346559	city	6	1	1.115931	1.115931	0	1	0	0	CorrectCommission	0.410729	0.806309	0	0	4.450000e+01
379.382141	1.386034	city	5	1	1.250748	1.250748	0	1	0	0	CorrectCommission	0.028236	0.775493	1	0	44
380.748230	1.346167	city	10	1	1.500100	1.500100	0	1	0	0	CorrectCommission	0.840131	0.745343	1	0	4.350000e+01
382.087738	1.332861	city	6	1	1.279889	1.279889	0	1	0	0	CorrectCommission	0.123118	0.718222	1	0	43
383.407288	1.306242	city	7	1	1.722009	1.722009	0	1	0	0	CorrectCommission	1.562667	0.696239	1	0	4.250000e+01
384.720123	1.319408	city	4	1	1.191557	1.191557	0	1	0	0	CorrectCommission	0.164492	0.680927	1	0	42
386.073029	1.386397	city	5	1	1.179591	1.179591	0	1	0	0	CorrectCommission	0.203454	0.673182	1	0	4.150000e+01
390.098358	6.664290	break	0	1	1.061558	1.061558	0	0	0	0	ThoughtProbe	0.587769	0.673123	1	41	41
394.090332	1.319656	city	6	1	1.242940	1.242940	0	1	0	0	CorrectCommission	0.002811	0.680148	1	0	4.102500e+01
395.416595	1.332842	city	1	1	1.055779	1.055779	0	1	0	0	CorrectCommission	0.606586	0.693217	1	0	4.105000e+01
396.722870	1.279736	city	7	1	0.989647	0.989647	0	1	0	0	CorrectCommission	0.821912	0.711047	1	0	4.107500e+01
398.022522	1.319535	city	8	1	1.487635	1.487635	0	1	0	0	CorrectCommission	0.799543	0.732399	1	0	4.110000e+01
399.328766	1.292956	mountain	4	0	0.000000	1.609152	1	0	0	0	CorrectOmission	1.195203	0.756443	1	0	4.112500e+01
400.628265	1.306049	city	4	1	1.580902	1.580902	0	1	0	0	CorrectCommission	1.103221	0.782814	1	0	4.115000e+01
401.934479	1.306382	city	8	1	1.629590	1.629590	0	1	0	0	CorrectCommission	1.261750	0.811730	0	0	4.117500e+01
403.260712	1.346085	city	6	1	1.630690	1.630690	0	1	0	0	CorrectCommission	1.265333	0.843788	0	0	4.120000e+01
404.620270	1.373034	city	7	1	1.289375	1.289375	0	1	0	0	CorrectCommission	0.154005	0.879733	0	0	4.122500e+01
405.966553	1.319544	mountain	10	0	0.000000	1.331524	1	0	0	0	CorrectOmission	0.291245	0.920078	0	0	4.125000e+01
407.279419	1.306166	city	9	1	1.391445	1.391445	0	1	0	0	CorrectCommission	0.486346	0.964716	0	0	4.127500e+01
408.618988	1.372950	city	7	1	1.103440	1.103440	0	1	0	0	CorrectCommission	0.451401	1.012715	0	0	4.130000e+01
409.971893	1.332899	city	4	1	0.908041	0.908041	0	1	0	0	CorrectCommission	1.087625	1.062224	0	0	4.132500e+01
411.304718	1.332740	city	8	1	1.337941	1.337941	0	1	0	0	CorrectCommission	0.312137	1.110664	0	0	4.135000e+01
412.630859	1.319554	city	1	1	0.673367	0.673367	0	1	0	0	CorrectCommission	1.851725	1.155080	0	0	4.137500e+01
413.943787	1.306294	city	3	1	0.546028	0.546028	0	1	0	0	CorrectCommission	2.266343	1.192531	0	0	4.140000e+01
415.250061	1.306231	city	5	1	1.689708	1.689708	0	1	0	0	CorrectCommission	1.457495	1.220627	0	0	4.142500e+01
416.562927	1.319523	city	1	1	1.990463	1.990463	0	1	0	0	CorrectCommission	2.436761	1.237910	0	0	4.145000e+01
417.902557	1.359712	city	4	1	1.791403	1.791403	0	1	0	0	CorrectCommission	1.788616	1.243997	0	0	4.147500e+01
419.248840	1.332890	mountain	3	0	0.000000	1.089044	1	0	0	0	CorrectOmission	0.498276	1.239679	0	0	4.150000e+01
420.568420	1.306230	city	3	1	0.744314	0.744314	0	1	0	0	CorrectCommission	1.620722	1.226658	0	0	4.152500e+01
421.894562	1.346100	city	4	1	1.618140	1.618140	0	1	0	0	CorrectCommission	1.224470	1.207135	0	0	4.155000e+01
423.227478	1.319721	city	9	1	1.235709	1.235709	0	1	0	0	CorrectCommission	0.020731	1.183493	0	0	4.157500e+01
424.540375	1.306084	city	2	1	1.769556	1.769556	0	1	0	0	CorrectCommission	1.717484	1.157867	0	0	4.160000e+01
425.899872	1.412856	city	8	1	1.125405	1.125405	0	1	0	0	CorrectCommission	0.379884	1.131797	0	0	4.162500e+01
427.272797	1.333039	city	2	1	1.528749	1.528749	0	1	0	0	CorrectCommission	0.933412	1.106207	0	0	4.165000e+01
428.652344	1.426034	city	4	1	1.660582	1.660582	0	1	0	0	CorrectCommission	1.362662	1.081316	0	0	4.167500e+01
430.045166	1.359637	city	8	1	1.765033	1.765033	0	1	0	0	CorrectCommission	1.702755	1.056838	0	0	4.170000e+01
431.404724	1.359465	city	6	1	1.620154	1.620154	0	1	0	0	CorrectCommission	1.231027	1.032149	0	0	4.172500e+01
432.777557	1.386219	city	9	1	1.423232	1.423232	0	1	0	0	CorrectCommission	0.589845	1.006547	0	0	4.175000e+01
434.177124	1.412878	city	7	1	1.758330	1.758330	0	1	0	0	CorrectCommission	1.680930	0.979457	0	0	4.177500e+01
435.583405	1.399685	city	8	1	1.205937	1.205937	0	1	0	0	CorrectCommission	0.117668	0.950513	0	0	4.180000e+01
436.943024	1.319559	city	7	1	1.593198	1.593198	0	1	0	0	CorrectCommission	1.143259	0.919752	0	0	4.182500e+01
438.295837	1.386056	city	2	1	0.940522	0.940522	0	1	0	0	CorrectCommission	0.981866	0.887574	0	0	4.185000e+01
439.641998	1.306279	city	10	1	1.449132	1.449132	0	1	0	0	CorrectCommission	0.674176	0.854787	0	0	4.187500e+01
440.961639	1.333031	city	4	1	1.731551	1.731551	0	1	0	0	CorrectCommission	1.593737	0.822633	0	0	4.190000e+01
442.347931	1.439537	city	1	1	1.300633	1.300633	0	1	0	0	CorrectCommission	0.190661	0.792601	1	0	4.192500e+01
443.740723	1.346063	city	9	1	1.013249	1.013249	0	1	0	0	CorrectCommission	0.745065	0.766442	1	0	4.195000e+01
445.086945	1.346379	city	3	1	1.543980	1.543980	0	1	0	0	CorrectCommission	0.983004	0.745935	1	0	4.197500e+01
449.558868	7.597455	break	0	0	0.000000	1.390990	0	0	0	0	ThoughtProbe	0.484865	0.732701	1	42	42
454.017395	1.319612	city	9	1	1.159874	1.159874	0	1	0	0	CorrectCommission	0.267653	0.728015	1	0	4.195652e+01
455.336914	1.319407	city	7	1	1.456227	1.456227	0	1	0	0	CorrectCommission	0.697278	0.732571	1	0	4.191304e+01
456.663147	1.333047	mountain	4	0	0.000000	1.486071	1	0	0	0	CorrectOmission	0.794450	0.746236	1	0	4.186957e+01
457.989380	1.319402	city	3	1	1.364162	1.364162	0	1	0	0	CorrectCommission	0.397513	0.767959	1	0	4.182609e+01
459.308838	1.319552	city	2	1	1.205258	1.205258	0	1	0	0	CorrectCommission	0.119880	0.795836	1	0	4.178261e+01
460.655151	1.373044	city	4	1	1.253847	1.253847	0	1	0	0	CorrectCommission	0.038327	0.827141	0	0	4.173913e+01
461.988129	1.292938	city	6	1	0.835095	0.835095	0	1	0	0	CorrectCommission	1.325138	0.858728	0	0	4.169565e+01
463.307709	1.346195	city	5	1	1.003028	1.003028	0	1	0	0	CorrectCommission	0.778343	0.887345	0	0	4.165217e+01
464.653931	1.346253	city	9	1	0.745468	0.745468	0	1	0	0	CorrectCommission	1.616964	0.910194	0	0	4.160870e+01
465.993469	1.332842	mountain	3	1	0.578961	0.578961	0	0	1	0	CommissionError	2.159115	0.925261	0	0	4.156522e+01
467.319641	1.319523	city	4	1	0.763594	0.763594	0	1	0	0	CorrectCommission	1.557946	0.931663	0	0	4.152174e+01
468.645813	1.332812	city	5	1	1.595192	1.595192	0	1	0	0	CorrectCommission	1.149751	0.929808	0	0	4.147826e+01
470.005402	1.386365	mountain	8	1	0.958779	0.958779	0	0	1	0	CommissionError	0.922421	0.921219	0	0	4.143478e+01
471.398346	1.399487	city	6	1	1.220559	1.220559	0	1	0	0	CorrectCommission	0.070060	0.908298	0	0	4.139130e+01
472.797791	1.399445	city	9	1	1.729044	1.729044	0	1	0	0	CorrectCommission	1.585576	0.893842	0	0	4.134783e+01
474.170624	1.346227	city	1	1	1.243385	1.243385	0	1	0	0	CorrectCommission	0.004262	0.880575	0	0	4.130435e+01
475.496948	1.306389	city	5	1	1.392302	1.392302	0	1	0	0	CorrectCommission	0.489138	0.870836	0	0	4.126087e+01
476.816498	1.332721	city	7	1	1.356583	1.356583	0	1	0	0	CorrectCommission	0.372835	0.866155	0	0	4.121739e+01
478.195984	1.426263	city	5	1	1.152255	1.152255	0	1	0	0	CorrectCommission	0.292460	0.867229	0	0	4.117391e+01
479.568970	1.319689	city	8	1	0.917287	0.917287	0	1	0	0	CorrectCommission	1.057517	0.873940	0	0	4.113043e+01
480.908569	1.359509	city	7	1	0.708775	0.708775	0	1	0	0	CorrectCommission	1.736438	0.885526	0	0	4.108696e+01
482.234711	1.292755	mountain	5	0	0.000000	0.797127	1	0	0	0	CorrectOmission	1.448762	0.900849	0	0	4.104348e+01
483.534241	1.306349	city	10	1	1.133427	1.133427	0	1	0	0	CorrectCommission	0.353763	0.918615	0	0	41
484.853912	1.332974	city	8	1	1.668758	1.668758	0	1	0	0	CorrectCommission	1.389281	0.937583	0	0	4.095652e+01
486.193512	1.346215	city	6	1	1.251522	1.251522	0	1	0	0	CorrectCommission	0.030755	0.956572	0	0	4.091304e+01
487.526306	1.319392	city	3	1	1.621019	1.621019	0	1	0	0	CorrectCommission	1.233843	0.974629	0	0	4.086957e+01
488.892456	1.412908	city	1	1	0.987752	0.987752	0	1	0	0	CorrectCommission	0.828085	0.990853	0	0	4.082609e+01
490.265411	1.333009	city	6	1	1.752593	1.752593	0	1	0	0	CorrectCommission	1.662250	1.004433	0	0	4.078261e+01
491.638367	1.412890	city	2	1	1.541713	1.541713	0	1	0	0	CorrectCommission	0.975624	1.014546	0	0	4.073913e+01
493.077911	1.466182	city	4	1	1.353587	1.353587	0	1	0	0	CorrectCommission	0.363080	1.020370	0	0	4.069565e+01
494.497345	1.372707	city	10	1	0.849435	0.849435	0	1	0	0	CorrectCommission	1.278446	1.021075	0	0	4.065217e+01
495.870239	1.373042	city	8	1	0.780230	0.780230	0	1	0	0	CorrectCommission	1.503777	1.015783	0	0	4.060870e+01
497.209808	1.306095	city	4	1	0.756332	0.756332	0	1	0	0	CorrectCommission	1.581591	1.003697	0	0	4.056522e+01
498.542694	1.359680	city	2	1	1.289467	1.289467	0	1	0	0	CorrectCommission	0.154304	0.984114	0	0	4.052174e+01
499.882233	1.319419	city	9	1	0.888605	0.888605	0	1	0	0	CorrectCommission	1.150907	0.956473	0	0	4.047826e+01
501.215149	1.346394	city	7	1	0.664612	0.664612	0	1	0	0	CorrectCommission	1.880233	0.920294	0	0	4.043478e+01
502.554779	1.332907	city	10	1	1.692439	1.692439	0	1	0	0	CorrectCommission	1.466388	0.875194	0	0	4.039130e+01
503.934326	1.426165	city	3	1	1.183583	1.183583	0	1	0	0	CorrectCommission	0.190456	0.820946	0	0	4.034783e+01
505.360474	1.426112	city	10	1	1.286007	1.286007	0	1	0	0	CorrectCommission	0.143041	0.757453	1	0	4.030435e+01
506.746613	1.346178	city	6	1	1.056877	1.056877	0	1	0	0	CorrectCommission	0.603012	0.684709	1	0	4.026087e+01
508.099457	1.359534	city	7	1	1.672653	1.672653	0	1	0	0	CorrectCommission	1.401964	0.602916	1	0	4.021739e+01
509.485748	1.413011	city	9	1	1.097771	1.097771	0	1	0	0	CorrectCommission	0.469859	0.512555	1	0	4.017391e+01
510.851959	1.319449	city	7	1	0.872680	0.872680	0	1	0	0	CorrectCommission	1.202761	0.414539	1	0	4.013043e+01
512.211548	1.399690	city	8	1	1.223294	1.223294	0	1	0	0	CorrectCommission	0.061157	0.310187	1	0	4.008696e+01
513.571106	1.319387	city	1	1	0.878620	0.878620	0	1	0	0	CorrectCommission	1.183421	0.201319	1	0	4.004348e+01
517.209961	5.958365	break	0	0	1.214416	1.214416	0	0	0	0	ThoughtProbe	0.090061	0.090061	1	40	40
