onset	duration	trial_type	image_type	Press	ReactionTime	ReactionTime_Interpolated	CorrectOmission	CorrectCommission	CommissionError	OmissionError	response_type	nonsmoothVarianceTimeCourse	VarianceTimeCourse	In_the_Zone	ThoughtProbe	ThoughtProbe_Interpolated
0.659597	1.293007	city	8	1	1.102431	1.102431	0	1	0	0	CorrectCommission	0.056556	0.056556	1	0	69
1.945899	1.279595	city	7	1	1.338346	1.338346	0	1	0	0	CorrectCommission	1.172258	0.133029	1	0	69
3.232154	1.292916	city	3	1	0.971619	0.971619	0	1	0	0	CorrectCommission	0.562085	0.206558	1	0	69
4.518400	1.279576	city	5	1	1.021526	1.021526	0	1	0	0	CorrectCommission	0.326063	0.274557	1	0	69
5.797971	1.279566	mountain	10	1	0.931141	0.931141	0	0	1	0	CommissionError	0.753515	0.335003	1	0	69
7.077472	1.279436	city	1	1	0.910939	0.910939	0	1	0	0	CorrectCommission	0.849058	0.386629	1	0	69
8.357045	1.279712	city	4	1	1.142044	1.142044	0	1	0	0	CorrectCommission	0.243896	0.428980	1	0	69
9.636692	1.279582	mountain	1	0	0.000000	1.213245	1	0	0	0	CorrectOmission	0.580622	0.462404	1	0	69
10.922897	1.292828	city	1	1	1.140045	1.140045	0	1	0	0	CorrectCommission	0.234440	0.487860	1	0	69
12.215803	1.292984	city	5	1	0.937947	0.937947	0	1	0	0	CorrectCommission	0.721329	0.506783	1	0	69
13.502019	1.279449	city	1	1	0.911211	0.911211	0	1	0	0	CorrectCommission	0.847769	0.520870	1	0	69
14.781598	1.279708	city	8	1	1.128220	1.128220	0	1	0	0	CorrectCommission	0.178520	0.531831	1	0	69
16.061241	1.279581	city	4	1	1.341384	1.341384	0	1	0	0	CorrectCommission	1.186622	0.541249	1	0	69
17.340740	1.279417	city	8	1	1.147003	1.147003	0	1	0	0	CorrectCommission	0.267350	0.550369	1	0	69
18.620319	1.279741	city	2	1	1.134564	1.134564	0	1	0	0	CorrectCommission	0.208519	0.560066	1	0	69
19.899994	1.279608	city	9	1	1.131587	1.131587	0	1	0	0	CorrectCommission	0.194440	0.570760	1	0	69
21.179602	1.279607	city	3	1	1.017387	1.017387	0	1	0	0	CorrectCommission	0.345639	0.582437	1	0	69
22.459093	1.279375	city	4	1	0.916314	0.916314	0	1	0	0	CorrectCommission	0.823636	0.594752	1	0	69
23.738655	1.279748	mountain	8	0	0.000000	1.143499	1	0	0	0	CorrectOmission	0.250779	0.607125	1	0	69
25.018305	1.279548	city	2	1	1.395612	1.395612	0	1	0	0	CorrectCommission	1.443080	0.618894	1	0	69
26.311201	1.306245	city	3	1	1.369321	1.369321	0	1	0	0	CorrectCommission	1.318744	0.629369	1	0	69
27.604113	1.279580	mountain	1	0	0.000000	1.127222	1	0	0	0	CorrectOmission	0.173800	0.637959	1	0	69
28.883692	1.279579	city	5	1	0.983302	0.983302	0	1	0	0	CorrectCommission	0.506834	0.644167	1	0	69
30.163233	1.279504	city	1	1	1.251546	1.251546	0	1	0	0	CorrectCommission	0.761759	0.647474	1	0	69
31.442814	1.279657	city	6	1	1.229652	1.229652	0	1	0	0	CorrectCommission	0.658215	0.647378	1	0	69
32.722443	1.279602	city	8	1	1.125571	1.125571	0	1	0	0	CorrectCommission	0.165992	0.643331	1	0	69
34.008686	1.292886	city	1	1	1.242031	1.242031	0	1	0	0	CorrectCommission	0.716757	0.634783	1	0	69
35.294846	1.279433	city	3	1	1.142160	1.142160	0	1	0	0	CorrectCommission	0.244445	0.621247	1	0	69
36.574436	1.279746	city	10	1	0.923187	0.923187	0	1	0	0	CorrectCommission	0.791135	0.602503	1	0	69
37.854015	1.279415	city	3	1	1.502003	1.502003	0	1	0	0	CorrectCommission	1.946232	0.578699	1	0	69
39.133583	1.279719	city	9	1	0.876277	0.876277	0	1	0	0	CorrectCommission	1.012981	0.550488	1	0	69
40.413170	1.279450	city	3	1	1.174615	1.174615	0	1	0	0	CorrectCommission	0.397933	0.519131	1	0	69
41.692745	1.279704	city	2	1	1.129073	1.129073	0	1	0	0	CorrectCommission	0.182555	0.486390	1	0	69
42.978977	1.292761	city	7	1	1.053746	1.053746	0	1	0	0	CorrectCommission	0.173688	0.454410	1	0	69
44.265232	1.279751	city	8	1	1.022437	1.022437	0	1	0	0	CorrectCommission	0.321755	0.425451	1	0	69
45.551563	1.292907	city	6	1	1.089905	1.089905	0	1	0	0	CorrectCommission	0.002682	0.401674	1	0	69
46.857777	1.319519	city	7	1	1.025534	1.025534	0	1	0	0	CorrectCommission	0.307107	0.384886	1	0	69
48.163998	1.292927	city	8	1	1.103066	1.103066	0	1	0	0	CorrectCommission	0.059557	0.376314	1	0	69
49.450180	1.279434	city	7	1	1.150514	1.150514	0	1	0	0	CorrectCommission	0.283954	0.376515	1	0	69
50.756420	1.333047	city	3	1	1.083209	1.083209	0	1	0	0	CorrectCommission	0.034347	0.385318	1	0	69
52.062782	1.279675	city	1	1	1.141063	1.141063	0	1	0	0	CorrectCommission	0.239256	0.401894	1	0	69
53.342300	1.279369	city	4	1	1.284863	1.284863	0	1	0	0	CorrectCommission	0.919323	0.424808	1	0	69
54.621845	1.279715	city	2	1	1.144007	1.144007	0	1	0	0	CorrectCommission	0.253180	0.452162	1	0	69
55.901531	1.279656	city	9	1	1.250778	1.250778	0	1	0	0	CorrectCommission	0.758124	0.481796	1	0	69
57.187763	1.292808	city	4	1	1.100644	1.100644	0	1	0	0	CorrectCommission	0.048106	0.511392	1	0	69
57.834167	9.836785	break	0	0	0.000000	1.119403	0	0	0	0	ThoughtProbe	0.136823	0.538685	1	69	69
68.310646	1.279397	city	1	0	0.000000	1.225941	0	0	0	1	OmissionError	0.640664	0.561641	1	0	6.860000e+01
69.590218	1.279745	city	5	1	1.339142	1.339142	0	1	0	0	CorrectCommission	1.176021	0.578643	1	0	6.820000e+01
70.883125	1.306069	city	9	1	1.377893	1.377893	0	1	0	0	CorrectCommission	1.359283	0.588665	1	0	6.780000e+01
72.175980	1.279634	mountain	1	1	0.923842	0.923842	0	0	1	0	CommissionError	0.788033	0.591440	1	0	6.740000e+01
73.455643	1.279687	city	9	1	0.910927	0.910927	0	1	0	0	CorrectCommission	0.849115	0.587531	1	0	67
74.735275	1.279580	city	7	1	1.028387	1.028387	0	1	0	0	CorrectCommission	0.293615	0.578341	1	0	6.660000e+01
76.014786	1.279452	city	1	1	0.978933	0.978933	0	1	0	0	CorrectCommission	0.527497	0.566092	1	0	6.620000e+01
77.301033	1.293035	city	6	1	1.142364	1.142364	0	1	0	0	CorrectCommission	0.245407	0.553657	1	0	6.580000e+01
78.587341	1.279579	city	3	1	0.963796	0.963796	0	1	0	0	CorrectCommission	0.599082	0.544356	1	0	6.540000e+01
79.866837	1.279415	mountain	10	1	1.284399	1.284399	0	0	1	0	CommissionError	0.917130	0.541622	1	0	65
81.159760	1.306428	city	3	1	1.160980	1.160980	0	1	0	0	CorrectCommission	0.333451	0.548632	1	0	6.460000e+01
82.452759	1.279575	city	5	1	1.124648	1.124648	0	1	0	0	CorrectCommission	0.161625	0.567933	1	0	6.420000e+01
83.738998	1.292908	city	1	1	1.027102	1.027102	0	1	0	0	CorrectCommission	0.299694	0.600989	1	0	6.380000e+01
85.025246	1.279579	city	6	1	1.038241	1.038241	0	1	0	0	CorrectCommission	0.247016	0.647836	1	0	6.340000e+01
86.318153	1.306236	city	9	1	1.081871	1.081871	0	1	0	0	CorrectCommission	0.040675	0.706839	1	0	63
87.611053	1.279573	city	2	1	1.133492	1.133492	0	1	0	0	CorrectCommission	0.203452	0.774652	0	0	6.260000e+01
88.910576	1.319466	city	1	1	1.024821	1.024821	0	1	0	0	CorrectCommission	0.310483	0.846387	0	0	6.220000e+01
90.216736	1.292855	city	3	1	0.911621	0.911621	0	1	0	0	CorrectCommission	0.845830	0.916056	0	0	6.180000e+01
91.502953	1.279568	city	10	1	1.242024	1.242024	0	1	0	0	CorrectCommission	0.716727	0.977255	0	0	6.140000e+01
92.782608	1.279752	city	8	1	0.666266	0.666266	0	1	0	0	CorrectCommission	2.006173	1.023968	0	0	61
94.062271	1.279573	city	7	1	0.593547	0.593547	0	1	0	0	CorrectCommission	2.350082	1.051370	0	0	6.060000e+01
95.341843	1.279564	city	6	1	1.676096	1.676096	0	1	0	0	CorrectCommission	2.769561	1.056540	0	0	6.020000e+01
96.628029	1.292820	city	7	1	1.680396	1.680396	0	1	0	0	CorrectCommission	2.789894	1.038878	0	0	5.980000e+01
97.914307	1.279730	city	9	1	1.289362	1.289362	0	1	0	0	CorrectCommission	0.940598	1.000143	0	0	5.940000e+01
99.193924	1.279509	city	7	1	1.240888	1.240888	0	1	0	0	CorrectCommission	0.711354	0.944219	0	0	59
100.473427	1.279500	city	3	1	1.093412	1.093412	0	1	0	0	CorrectCommission	0.013902	0.876472	0	0	5.860000e+01
101.752945	1.279532	city	1	1	1.073471	1.073471	0	1	0	0	CorrectCommission	0.080403	0.803010	0	0	5.820000e+01
103.039238	1.293055	city	5	1	0.974662	0.974662	0	1	0	0	CorrectCommission	0.547695	0.729882	0	0	5.780000e+01
104.332153	1.292772	city	1	1	1.253068	1.253068	0	1	0	0	CorrectCommission	0.768955	0.662358	1	0	5.740000e+01
105.618355	1.279627	mountain	10	1	1.129096	1.129096	0	0	1	0	CommissionError	0.182663	0.604446	1	0	57
106.904671	1.293005	city	3	1	1.033063	1.033063	0	1	0	0	CorrectCommission	0.271503	0.558597	1	0	5.660000e+01
108.210953	1.319562	city	9	1	1.111922	1.111922	0	1	0	0	CorrectCommission	0.101440	0.525636	1	0	5.620000e+01
109.523842	1.306218	city	1	1	1.046933	1.046933	0	1	0	0	CorrectCommission	0.205908	0.504945	1	0	5.580000e+01
110.823334	1.292768	city	9	1	1.154503	1.154503	0	1	0	0	CorrectCommission	0.302816	0.494758	1	0	5.540000e+01
112.109543	1.279641	city	8	1	0.974747	0.974747	0	1	0	0	CorrectCommission	0.547294	0.492557	1	0	55
113.402451	1.306181	city	7	1	0.939031	0.939031	0	1	0	0	CorrectCommission	0.716205	0.495497	1	0	5.460000e+01
114.701981	1.292877	city	5	1	0.937126	0.937126	0	1	0	0	CorrectCommission	0.725211	0.500816	1	0	5.420000e+01
116.001572	1.306313	city	3	1	0.931026	0.931026	0	1	0	0	CorrectCommission	0.754062	0.506180	1	0	5.380000e+01
117.294563	1.279663	city	7	1	1.190576	1.190576	0	1	0	0	CorrectCommission	0.473417	0.509923	1	0	5.340000e+01
117.934395	8.077318	break	0	0	0.000000	1.172951	0	0	0	0	ThoughtProbe	0.390064	0.511190	1	53	53
126.658188	1.292958	city	10	1	1.152315	1.152315	0	1	0	0	CorrectCommission	0.292472	0.509952	1	0	5.308696e+01
127.944366	1.279391	mountain	10	1	1.402833	1.402833	0	0	1	0	CommissionError	1.477232	0.506912	1	0	5.317391e+01
129.230591	1.293064	city	4	1	1.191685	1.191685	0	1	0	0	CorrectCommission	0.478659	0.503302	1	0	5.326087e+01
130.543518	1.332792	city	3	1	1.183814	1.183814	0	1	0	0	CorrectCommission	0.441439	0.500680	1	0	5.334783e+01
131.849777	1.279735	city	2	1	1.144910	1.144910	0	1	0	0	CorrectCommission	0.257452	0.500571	1	0	5.343478e+01
133.149414	1.319522	city	9	1	1.137221	1.137221	0	1	0	0	CorrectCommission	0.221085	0.504243	1	0	5.352174e+01
134.448959	1.279581	city	3	1	1.088597	1.088597	0	1	0	0	CorrectCommission	0.008870	0.512407	1	0	5.360870e+01
135.735214	1.292926	city	9	1	1.038377	1.038377	0	1	0	0	CorrectCommission	0.246369	0.525094	1	0	5.369565e+01
137.028076	1.292796	city	2	1	0.977891	0.977891	0	1	0	0	CorrectCommission	0.532426	0.541587	1	0	5.378261e+01
138.314224	1.279509	city	10	1	1.021021	1.021021	0	1	0	0	CorrectCommission	0.328453	0.560508	1	0	5.386957e+01
139.593857	1.279747	city	2	1	1.231563	1.231563	0	1	0	0	CorrectCommission	0.667252	0.580043	1	0	5.395652e+01
140.873444	1.279410	city	10	1	1.192823	1.192823	0	1	0	0	CorrectCommission	0.484042	0.598202	1	0	5.404348e+01
142.152969	1.279667	city	3	1	1.326592	1.326592	0	1	0	0	CorrectCommission	1.116669	0.613127	1	0	5.413043e+01
143.452637	1.319644	mountain	1	0	0.000000	1.382814	1	0	0	0	CorrectOmission	1.382556	0.623345	1	0	5.421739e+01
144.752243	1.279577	city	3	1	1.353645	1.353645	0	1	0	0	CorrectCommission	1.244608	0.627947	1	0	5.430435e+01
146.031815	1.279578	city	6	1	1.231241	1.231241	0	1	0	0	CorrectCommission	0.665732	0.626670	1	0	5.439130e+01
147.311325	1.279431	mountain	4	0	0.000000	1.164445	1	0	0	0	CorrectOmission	0.349837	0.619843	1	0	5.447826e+01
148.597580	1.293076	city	8	1	1.113373	1.113373	0	1	0	0	CorrectCommission	0.108303	0.608252	1	0	5.456522e+01
149.883896	1.279557	city	3	1	1.038140	1.038140	0	1	0	0	CorrectCommission	0.247489	0.593001	1	0	5.465217e+01
151.170044	1.292751	city	10	1	1.046615	1.046615	0	1	0	0	CorrectCommission	0.207412	0.575347	1	0	5.473913e+01
152.456299	1.279747	city	4	1	1.314569	1.314569	0	1	0	0	CorrectCommission	1.059812	0.556623	1	0	5.482609e+01
153.749222	1.306088	city	1	1	1.356572	1.356572	0	1	0	0	CorrectCommission	1.258452	0.538115	1	0	5.491304e+01
155.055435	1.306345	city	5	1	1.258983	1.258983	0	1	0	0	CorrectCommission	0.796931	0.521048	1	0	55
156.348343	1.279483	city	9	1	1.098560	1.098560	0	1	0	0	CorrectCommission	0.038250	0.506524	1	0	5.508696e+01
157.634598	1.293035	city	6	1	1.205734	1.205734	0	1	0	0	CorrectCommission	0.545100	0.495488	1	0	5.517391e+01
158.940918	1.319586	city	5	1	1.095846	1.095846	0	1	0	0	CorrectCommission	0.025414	0.488586	1	0	5.526087e+01
160.240494	1.279564	city	1	1	1.037678	1.037678	0	1	0	0	CorrectCommission	0.249675	0.486164	1	0	5.534783e+01
161.526733	1.292924	city	5	1	1.148405	1.148405	0	1	0	0	CorrectCommission	0.273980	0.488190	1	0	5.543478e+01
162.819656	1.292916	city	4	1	1.085316	1.085316	0	1	0	0	CorrectCommission	0.024387	0.494310	1	0	5.552174e+01
164.112579	1.292934	city	9	1	0.947350	0.947350	0	1	0	0	CorrectCommission	0.676859	0.503899	1	0	5.560870e+01
165.398727	1.279363	city	10	1	0.930676	0.930676	0	1	0	0	CorrectCommission	0.755716	0.516236	1	0	5.569565e+01
166.678223	1.279636	city	5	1	0.979168	0.979168	0	1	0	0	CorrectCommission	0.526386	0.530680	1	0	5.578261e+01
167.964462	1.292848	city	10	1	0.869134	0.869134	0	1	0	0	CorrectCommission	1.046765	0.546880	1	0	5.586957e+01
169.250763	1.279742	mountain	1	1	0.976468	0.976468	0	0	1	0	CommissionError	0.539154	0.564862	1	0	5.595652e+01
170.530426	1.279582	city	2	1	0.883570	0.883570	0	1	0	0	CorrectCommission	0.978492	0.585132	1	0	5.604348e+01
171.816666	1.292896	city	8	1	0.992911	0.992911	0	1	0	0	CorrectCommission	0.461393	0.608530	1	0	5.613043e+01
173.122894	1.319578	city	9	1	1.097882	1.097882	0	1	0	0	CorrectCommission	0.035043	0.636149	1	0	5.621739e+01
174.455795	1.346224	city	5	1	1.049752	1.049752	0	1	0	0	CorrectCommission	0.192576	0.669048	1	0	5.630435e+01
175.768616	1.279411	city	8	1	1.031028	1.031028	0	1	0	0	CorrectCommission	0.281125	0.707983	1	0	5.639130e+01
177.048203	1.279748	city	10	1	0.825466	0.825466	0	1	0	0	CorrectCommission	1.253278	0.753146	0	0	5.647826e+01
178.334457	1.292761	city	7	1	1.316891	1.316891	0	1	0	0	CorrectCommission	1.070792	0.803912	0	0	5.656522e+01
179.620712	1.279743	city	2	1	0.981527	0.981527	0	1	0	0	CorrectCommission	0.515228	0.858758	0	0	5.665217e+01
180.907028	1.292903	city	6	1	0.921725	0.921725	0	1	0	0	CorrectCommission	0.798045	0.915188	0	0	5.673913e+01
182.193192	1.279417	city	1	1	0.879792	0.879792	0	1	0	0	CorrectCommission	0.996359	0.969817	0	0	5.682609e+01
183.472687	1.279593	city	6	1	1.089468	1.089468	0	1	0	0	CorrectCommission	0.004748	1.018670	0	0	5.691304e+01
184.112488	8.050657	break	0	0	0.000000	1.231051	0	0	0	0	ThoughtProbe	0.664834	1.057605	0	57	57
192.809677	1.293063	city	7	1	1.408316	1.408316	0	1	0	0	CorrectCommission	1.503161	1.082772	0	0	5.671739e+01
194.096008	1.279600	city	5	1	1.725036	1.725036	0	1	0	0	CorrectCommission	3.001010	1.091223	0	0	5.643478e+01
195.375504	1.279401	city	2	1	1.513912	1.513912	0	1	0	0	CorrectCommission	2.002552	1.081368	0	0	5.615217e+01
196.655014	1.279604	city	10	1	1.652938	1.652938	0	1	0	0	CorrectCommission	2.660040	1.053364	0	0	5.586957e+01
197.987915	1.386208	city	3	1	1.265056	1.265056	0	1	0	0	CorrectCommission	0.825651	1.009116	0	0	5.558696e+01
199.347549	1.333059	city	9	1	0.910580	0.910580	0	1	0	0	CorrectCommission	0.850755	0.952156	0	0	5.530435e+01
200.653870	1.279578	mountain	8	0	0.000000	1.087664	1	0	0	0	CorrectOmission	0.013278	0.887109	0	0	5.502174e+01
201.933365	1.279408	city	6	1	1.310108	1.310108	0	1	0	0	CorrectCommission	1.038713	0.819137	0	0	5.473913e+01
203.226257	1.306387	city	1	1	1.091709	1.091709	0	1	0	0	CorrectCommission	0.005852	0.753220	0	0	5.445652e+01
204.540833	1.322743	city	7	1	1.255201	1.255201	0	1	0	0	CorrectCommission	0.779041	0.693638	1	0	5.417391e+01
205.853683	1.302980	city	10	1	1.104291	1.104291	0	1	0	0	CorrectCommission	0.065353	0.643452	1	0	5.389130e+01
207.145020	1.279685	mountain	8	0	0.000000	1.065008	1	0	0	0	CorrectOmission	0.120424	0.604344	1	0	5.360870e+01
208.424637	1.279554	city	6	1	1.077794	1.077794	0	1	0	0	CorrectCommission	0.059958	0.576619	1	0	5.332609e+01
209.710876	1.292932	city	4	1	1.083089	1.083089	0	1	0	0	CorrectCommission	0.034918	0.559386	1	0	5.304348e+01
211.010406	1.306129	city	5	1	0.856808	0.856808	0	1	0	0	CorrectCommission	1.105056	0.550984	1	0	5.276087e+01
212.309967	1.292987	mountain	10	0	0.000000	0.862209	1	0	0	0	CorrectOmission	1.079511	0.549370	1	0	5.247826e+01
213.602936	1.292937	city	9	1	0.935349	0.935349	0	1	0	0	CorrectCommission	0.733617	0.552638	1	0	5.219565e+01
214.889099	1.279402	city	10	1	0.912280	0.912280	0	1	0	0	CorrectCommission	0.842712	0.559328	1	0	5.191304e+01
216.168686	1.279751	city	9	1	1.039219	1.039219	0	1	0	0	CorrectCommission	0.242387	0.568604	1	0	5.163043e+01
217.461624	1.306144	city	6	1	0.990016	0.990016	0	1	0	0	CorrectCommission	0.475080	0.580323	1	0	5.134783e+01
218.761200	1.293003	city	9	1	1.258199	1.258199	0	1	0	0	CorrectCommission	0.793222	0.594893	1	0	5.106522e+01
220.060791	1.306168	city	6	1	1.197170	1.197170	0	1	0	0	CorrectCommission	0.504601	0.613035	1	0	5.078261e+01
221.366943	1.306155	city	5	1	1.123788	1.123788	0	1	0	0	CorrectCommission	0.157559	0.635504	1	0	5.050000e+01
222.666534	1.293034	city	9	1	1.040764	1.040764	0	1	0	0	CorrectCommission	0.235082	0.662760	1	0	5.021739e+01
223.966095	1.306088	city	8	1	0.880119	0.880119	0	1	0	0	CorrectCommission	0.994812	0.694764	1	0	4.993478e+01
225.259018	1.279755	city	7	1	0.920811	0.920811	0	1	0	0	CorrectCommission	0.802370	0.730760	0	0	4.965217e+01
226.565201	1.332597	city	3	1	1.144975	1.144975	0	1	0	0	CorrectCommission	0.257758	0.769347	0	0	4.936957e+01
227.884781	1.306568	city	10	1	0.937926	0.937926	0	1	0	0	CorrectCommission	0.721428	0.808515	0	0	4.908696e+01
229.177765	1.279393	city	3	1	0.969574	0.969574	0	1	0	0	CorrectCommission	0.571756	0.845917	0	0	4.880435e+01
230.457245	1.279570	mountain	7	1	0.832696	0.832696	0	0	1	0	CommissionError	1.219087	0.879148	0	0	4.852174e+01
231.736816	1.279575	city	4	1	1.299950	1.299950	0	1	0	0	CorrectCommission	0.990674	0.906138	0	0	4.823913e+01
233.016464	1.279716	city	6	1	1.607848	1.607848	0	1	0	0	CorrectCommission	2.446797	0.925547	0	0	4.795652e+01
234.302795	1.292939	city	1	1	0.986058	0.986058	0	1	0	0	CorrectCommission	0.493799	0.937028	0	0	4.767391e+01
235.588974	1.279426	city	7	1	1.312559	1.312559	0	1	0	0	CorrectCommission	1.050306	0.941490	0	0	4.739130e+01
236.881866	1.306368	city	8	1	0.885135	0.885135	0	1	0	0	CorrectCommission	0.971089	0.940978	0	0	4.710870e+01
238.181503	1.292904	city	3	1	0.712997	0.712997	0	1	0	0	CorrectCommission	1.785173	0.938519	0	0	4.682609e+01
239.467682	1.279447	city	2	1	0.813978	0.813978	0	1	0	0	CorrectCommission	1.307608	0.937712	0	0	4.654348e+01
240.753937	1.293063	city	5	1	1.118161	1.118161	0	1	0	0	CorrectCommission	0.130950	0.942256	0	0	4.626087e+01
242.040253	1.279582	city	4	1	1.178111	1.178111	0	1	0	0	CorrectCommission	0.414468	0.955339	0	0	4.597826e+01
243.326492	1.292876	city	9	1	1.085247	1.085247	0	1	0	0	CorrectCommission	0.024711	0.979052	0	0	4.569565e+01
244.612671	1.279502	city	8	1	1.022820	1.022820	0	1	0	0	CorrectCommission	0.319943	1.014010	0	0	4.541304e+01
245.892258	1.279666	city	7	1	0.927953	0.927953	0	1	0	0	CorrectCommission	0.768591	1.059086	0	0	4.513043e+01
247.171890	1.279596	city	5	1	1.293994	1.293994	0	1	0	0	CorrectCommission	0.962507	1.111458	0	0	4.484783e+01
248.451462	1.279557	city	9	1	0.751159	0.751159	0	1	0	0	CorrectCommission	1.604695	1.166919	0	0	4.456522e+01
249.737701	1.292909	city	10	1	0.938432	0.938432	0	1	0	0	CorrectCommission	0.719033	1.220368	0	0	4.428261e+01
250.384155	9.196854	break	0	0	0.000000	0.730229	0	0	0	0	ThoughtProbe	1.703677	1.266523	0	44	44
260.220886	1.279728	city	10	1	0.805267	0.805267	0	1	0	0	CorrectCommission	1.348806	1.300565	0	0	4.415000e+01
261.507172	1.292898	city	4	1	1.842261	1.842261	0	1	0	0	CorrectCommission	3.555396	1.318864	0	0	4.430000e+01
262.799957	1.292621	mountain	9	0	0.000000	1.587281	1	0	0	0	CorrectOmission	2.349531	1.319415	0	0	4.445000e+01
264.099518	1.306500	city	3	1	0.947117	0.947117	0	1	0	0	CorrectCommission	0.677962	1.302194	0	0	4.460000e+01
265.419128	1.332763	city	8	1	0.828560	0.828560	0	1	0	0	CorrectCommission	1.238645	1.269103	0	0	4.475000e+01
266.725281	1.279552	mountain	1	1	0.819794	0.819794	0	0	1	0	CommissionError	1.280106	1.223681	0	0	4.490000e+01
268.004944	1.279743	city	4	1	1.435395	1.435395	0	1	0	0	CorrectCommission	1.631223	1.170687	0	0	4.505000e+01
269.291229	1.292840	city	2	1	0.730978	0.730978	0	1	0	0	CorrectCommission	1.700136	1.115434	0	0	4.520000e+01
270.584076	1.292854	city	9	1	1.029923	1.029923	0	1	0	0	CorrectCommission	0.286352	1.063167	0	0	4.535000e+01
271.910309	1.359615	city	1	1	1.156047	1.156047	0	1	0	0	CorrectCommission	0.310118	1.018371	0	0	4.550000e+01
273.236542	1.292830	city	10	1	0.925368	0.925368	0	1	0	0	CorrectCommission	0.780816	0.984175	0	0	4.565000e+01
274.522827	1.279738	city	2	1	1.093323	1.093323	0	1	0	0	CorrectCommission	0.013481	0.961993	0	0	4.580000e+01
275.802490	1.279576	city	5	1	1.031675	1.031675	0	1	0	0	CorrectCommission	0.278064	0.951449	0	0	4.595000e+01
277.081970	1.279396	city	2	1	0.933417	0.933417	0	1	0	0	CorrectCommission	0.742751	0.950477	0	0	4.610000e+01
278.368195	1.293072	city	4	1	0.984717	0.984717	0	1	0	0	CorrectCommission	0.500143	0.955682	0	0	4.625000e+01
279.661194	1.292913	city	2	1	0.778728	0.778728	0	1	0	0	CorrectCommission	1.474317	0.962979	0	0	4.640000e+01
280.947388	1.279496	city	4	1	0.664818	0.664818	0	1	0	0	CorrectCommission	2.013022	0.968172	0	0	4.655000e+01
282.226959	1.279661	city	10	1	0.755631	0.755631	0	1	0	0	CorrectCommission	1.583547	0.967673	0	0	4.670000e+01
283.513184	1.292767	city	2	1	0.827176	0.827176	0	1	0	0	CorrectCommission	1.245192	0.959012	0	0	4.685000e+01
284.806030	1.292895	mountain	4	1	0.821624	0.821624	0	0	1	0	CommissionError	1.271451	0.941155	0	0	47
286.105591	1.306242	city	10	1	0.935615	0.935615	0	1	0	0	CorrectCommission	0.732360	0.914590	0	0	4.715000e+01
287.405151	1.292895	city	3	1	1.368082	1.368082	0	1	0	0	CorrectCommission	1.312887	0.881145	0	0	4.730000e+01
288.691467	1.279736	city	2	1	1.351980	1.351980	0	1	0	0	CorrectCommission	1.236734	0.843675	0	0	4.745000e+01
289.997772	1.332891	city	5	1	1.140374	1.140374	0	1	0	0	CorrectCommission	0.235997	0.805516	0	0	4.760000e+01
291.337341	1.346233	city	7	1	0.995051	0.995051	0	1	0	0	CorrectCommission	0.451270	0.770056	0	0	4.775000e+01
292.656860	1.292797	city	6	1	1.070663	1.070663	0	1	0	0	CorrectCommission	0.093684	0.740195	0	0	4.790000e+01
293.949768	1.293011	city	2	1	1.037899	1.037899	0	1	0	0	CorrectCommission	0.248630	0.718016	1	0	4.805000e+01
295.235992	1.279437	city	3	1	0.917216	0.917216	0	1	0	0	CorrectCommission	0.819370	0.704542	1	0	4.820000e+01
296.535492	1.319589	city	4	1	1.218907	1.218907	0	1	0	0	CorrectCommission	0.607398	0.699726	1	0	4.835000e+01
297.855133	1.319686	city	2	1	1.129747	1.129747	0	1	0	0	CorrectCommission	0.185742	0.702586	1	0	4.850000e+01
299.161499	1.293037	city	1	1	0.982730	0.982730	0	1	0	0	CorrectCommission	0.509538	0.711458	1	0	4.865000e+01
300.467743	1.319429	city	10	1	0.857287	0.857287	0	1	0	0	CorrectCommission	1.102791	0.724298	0	0	4.880000e+01
301.773773	1.292623	city	9	1	0.770292	0.770292	0	1	0	0	CorrectCommission	1.514211	0.738999	0	0	4.895000e+01
303.059937	1.279742	city	7	1	0.992854	0.992854	0	1	0	0	CorrectCommission	0.461662	0.753684	0	0	4.910000e+01
304.339600	1.279575	city	2	1	0.779426	0.779426	0	1	0	0	CorrectCommission	1.471016	0.766893	0	0	4.925000e+01
305.619263	1.279717	city	3	1	1.093031	1.093031	0	1	0	0	CorrectCommission	0.012104	0.777584	0	0	4.940000e+01
306.905579	1.292930	city	4	1	1.311711	1.311711	0	1	0	0	CorrectCommission	1.046292	0.785218	0	0	4.955000e+01
308.205139	1.306210	city	5	1	1.181208	1.181208	0	1	0	0	CorrectCommission	0.429112	0.789536	0	0	4.970000e+01
309.518036	1.319589	city	9	1	0.857731	0.857731	0	1	0	0	CorrectCommission	1.100690	0.790538	0	0	4.985000e+01
310.177826	10.729637	break	0	0	0.000000	0.842772	0	0	0	0	ThoughtProbe	1.171436	0.788294	0	50	50
321.567352	1.319737	city	3	1	1.062796	1.062796	0	1	0	0	CorrectCommission	0.130886	0.782866	0	0	5.029412e+01
322.866943	1.279438	city	7	1	1.444271	1.444271	0	1	0	0	CorrectCommission	1.673202	0.774256	0	0	5.058824e+01
324.146423	1.279531	city	10	1	1.158153	1.158153	0	1	0	0	CorrectCommission	0.320078	0.762343	0	0	5.088235e+01
325.439636	1.306895	city	3	1	1.274323	1.274323	0	1	0	0	CorrectCommission	0.869478	0.747017	0	0	5.117647e+01
326.752533	1.318933	city	1	1	1.097230	1.097230	0	1	0	0	CorrectCommission	0.031959	0.728172	0	0	5.147059e+01
328.065186	1.306377	city	9	1	0.833601	0.833601	0	1	0	0	CorrectCommission	1.214805	0.705882	1	0	5.176471e+01
329.371490	1.306234	mountain	10	1	0.950964	0.950964	0	0	1	0	CommissionError	0.659769	0.680454	1	0	5.205882e+01
330.691071	1.332918	city	5	1	0.805767	0.805767	0	1	0	0	CorrectCommission	1.346442	0.652586	1	0	5.235294e+01
331.997253	1.279423	city	9	1	0.825370	0.825370	0	1	0	0	CorrectCommission	1.253732	0.623320	1	0	5.264706e+01
333.316772	1.359649	city	5	1	1.065008	1.065008	0	1	0	0	CorrectCommission	0.120428	0.594049	1	0	5.294118e+01
334.656403	1.319604	city	8	1	1.053718	1.053718	0	1	0	0	CorrectCommission	0.173818	0.566385	1	0	5.323529e+01
335.955994	1.279581	city	7	1	1.198444	1.198444	0	1	0	0	CorrectCommission	0.510628	0.541932	1	0	5.352941e+01
337.248932	1.306265	city	4	1	1.161043	1.161043	0	1	0	0	CorrectCommission	0.333747	0.522088	1	0	5.382353e+01
338.568420	1.332737	city	3	1	1.130647	1.130647	0	1	0	0	CorrectCommission	0.189995	0.507837	1	0	5.411765e+01
339.881317	1.293061	city	2	1	1.107637	1.107637	0	1	0	0	CorrectCommission	0.081176	0.499610	1	0	5.441176e+01
341.174316	1.292904	city	10	1	0.979514	0.979514	0	1	0	0	CorrectCommission	0.524750	0.497265	1	0	5.470588e+01
342.460541	1.279558	city	2	1	1.126963	1.126963	0	1	0	0	CorrectCommission	0.172574	0.500066	1	0	55
343.746796	1.292936	city	10	1	1.251638	1.251638	0	1	0	0	CorrectCommission	0.762193	0.506871	1	0	5.529412e+01
345.046356	1.306207	city	6	1	1.320667	1.320667	0	1	0	0	CorrectCommission	1.088647	0.516305	1	0	5.558824e+01
346.359222	1.319547	city	8	1	1.168273	1.168273	0	1	0	0	CorrectCommission	0.367941	0.527007	1	0	5.588235e+01
347.658783	1.279522	city	3	1	1.100001	1.100001	0	1	0	0	CorrectCommission	0.045065	0.537876	1	0	5.617647e+01
348.945038	1.293004	mountain	2	0	0.000000	1.201158	1	0	0	0	CorrectOmission	0.523459	0.548275	1	0	5.647059e+01
350.231232	1.279400	city	5	1	1.323148	1.323148	0	1	0	0	CorrectCommission	1.100384	0.558168	1	0	5.676471e+01
351.550781	1.359715	city	10	1	1.317380	1.317380	0	1	0	0	CorrectCommission	1.073102	0.568155	1	0	5.705882e+01
352.877045	1.292770	city	8	1	1.140042	1.140042	0	1	0	0	CorrectCommission	0.234428	0.579445	1	0	5.735294e+01
354.170837	1.294818	city	2	1	1.235700	1.235700	0	1	0	0	CorrectCommission	0.686819	0.593704	1	0	5.764706e+01
355.483704	1.330951	city	9	1	1.246619	1.246619	0	1	0	0	CorrectCommission	0.738456	0.612786	1	0	5.794118e+01
356.789093	1.279831	city	10	1	1.095213	1.095213	0	1	0	0	CorrectCommission	0.022422	0.638401	1	0	5.823529e+01
358.088715	1.319409	city	7	1	1.220376	1.220376	0	1	0	0	CorrectCommission	0.614345	0.671831	1	0	5.852941e+01
359.414948	1.333022	city	8	1	0.990151	0.990151	0	1	0	0	CorrectCommission	0.474443	0.713569	1	0	5.882353e+01
360.721161	1.279420	city	5	1	1.094634	1.094634	0	1	0	0	CorrectCommission	0.019682	0.763143	0	0	5.911765e+01
362.000702	1.279686	city	6	1	1.232781	1.232781	0	1	0	0	CorrectCommission	0.673015	0.819048	0	0	5.941176e+01
363.280334	1.279576	city	7	1	1.071188	1.071188	0	1	0	0	CorrectCommission	0.091200	0.878796	0	0	5.970588e+01
363.920135	9.836804	break	0	0	0.000000	1.280232	0	0	0	0	ThoughtProbe	0.897419	0.939183	0	60	60
374.396698	1.279545	city	6	0	0.000000	1.542422	0	0	0	1	OmissionError	2.137380	0.996597	0	0	5.958824e+01
375.676178	1.279422	city	4	1	1.540268	1.540268	0	1	0	0	CorrectCommission	2.127194	1.047430	0	0	5.917647e+01
376.982361	1.332911	city	3	1	0.956280	0.956280	0	1	0	0	CorrectCommission	0.634630	1.088514	0	0	5.876471e+01
378.302002	1.306376	city	6	1	0.669588	0.669588	0	1	0	0	CorrectCommission	1.990466	1.117434	0	0	5.835294e+01
379.601624	1.292880	city	10	1	0.892894	0.892894	0	1	0	0	CorrectCommission	0.934394	1.132674	0	0	5.794118e+01
380.887878	1.279625	mountain	6	0	0.000000	1.218775	1	0	0	0	CorrectOmission	0.606777	1.133828	0	0	5.752941e+01
382.167450	1.279535	city	1	1	1.465624	1.465624	0	1	0	0	CorrectCommission	1.774184	1.121508	0	0	5.711765e+01
383.466980	1.319504	city	9	1	1.451832	1.451832	0	1	0	0	CorrectCommission	1.708961	1.097248	0	0	5.670588e+01
384.786469	1.319492	city	2	1	1.527390	1.527390	0	1	0	0	CorrectCommission	2.066290	1.063345	0	0	5.629412e+01
386.119415	1.346387	city	3	1	1.139441	1.139441	0	1	0	0	CorrectCommission	0.231587	1.022576	0	0	5.588235e+01
387.439056	1.292917	city	1	1	1.227401	1.227401	0	1	0	0	CorrectCommission	0.647569	0.977954	0	0	5.547059e+01
388.731903	1.292734	city	7	1	1.325485	1.325485	0	1	0	0	CorrectCommission	1.111434	0.932377	0	0	5.505882e+01
390.018158	1.279764	mountain	6	0	0.000000	1.177410	1	0	0	0	CorrectOmission	0.411149	0.888407	0	0	5.464706e+01
391.297791	1.279557	city	4	1	0.967621	0.967621	0	1	0	0	CorrectCommission	0.580991	0.848066	0	0	5.423529e+01
392.577301	1.279449	city	9	1	0.880567	0.880567	0	1	0	0	CorrectCommission	0.992692	0.812648	0	0	5.382353e+01
393.863464	1.292875	city	4	1	1.260285	1.260285	0	1	0	0	CorrectCommission	0.803085	0.782707	0	0	5.341176e+01
395.163116	1.306393	city	8	1	1.047166	1.047166	0	1	0	0	CorrectCommission	0.204804	0.758083	0	0	53
396.456024	1.279430	city	9	1	1.287572	1.287572	0	1	0	0	CorrectCommission	0.932135	0.737997	0	0	5.258824e+01
397.748932	1.306419	city	1	1	1.216861	1.216861	0	1	0	0	CorrectCommission	0.597722	0.721239	0	0	5.217647e+01
399.061859	1.319396	city	4	1	1.213033	1.213033	0	1	0	0	CorrectCommission	0.579623	0.706392	1	0	5.176471e+01
400.394745	1.346369	city	3	1	1.175756	1.175756	0	1	0	0	CorrectCommission	0.403327	0.692105	1	0	5.135294e+01
401.714386	1.292928	city	9	1	0.862922	0.862922	0	1	0	0	CorrectCommission	1.076143	0.677281	1	0	5.094118e+01
403.000610	1.279556	city	10	1	0.809725	0.809725	0	1	0	0	CorrectCommission	1.327723	0.661317	1	0	5.052941e+01
404.286865	1.292911	city	1	1	1.226423	1.226423	0	1	0	0	CorrectCommission	0.642944	0.644291	1	0	5.011765e+01
405.619751	1.372881	city	10	1	1.290056	1.290056	0	1	0	0	CorrectCommission	0.943879	0.627002	1	0	4.970588e+01
406.966003	1.319622	city	8	1	1.157401	1.157401	0	1	0	0	CorrectCommission	0.316524	0.610851	1	0	4.929412e+01
408.285492	1.319352	city	4	1	0.963319	0.963319	0	1	0	0	CorrectCommission	0.601338	0.597753	1	0	4.888235e+01
409.591614	1.292914	city	9	1	1.038645	1.038645	0	1	0	0	CorrectCommission	0.245103	0.589828	1	0	4.847059e+01
410.884521	1.292908	city	6	1	1.002942	1.002942	0	1	0	0	CorrectCommission	0.413950	0.589096	1	0	4.805882e+01
412.197449	1.332914	city	2	1	1.123844	1.123844	0	1	0	0	CorrectCommission	0.157826	0.597168	1	0	4.764706e+01
413.510406	1.293041	city	4	1	1.191064	1.191064	0	1	0	0	CorrectCommission	0.475724	0.614934	1	0	4.723529e+01
414.796661	1.279433	city	2	1	0.996935	0.996935	0	1	0	0	CorrectCommission	0.442358	0.642356	1	0	4.682353e+01
416.082825	1.292894	city	9	1	1.262806	1.262806	0	1	0	0	CorrectCommission	0.815010	0.678337	1	0	4.641176e+01
416.729279	8.210767	break	0	0	0.000000	1.094794	0	0	0	0	ThoughtProbe	0.020438	0.720698	1	46	46
425.593170	1.306286	city	1	1	0.954377	0.954377	0	1	0	0	CorrectCommission	0.643628	0.766355	0	0	4.570000e+01
426.925995	1.359381	mountain	1	1	1.303035	1.303035	0	0	1	0	CommissionError	1.005262	0.811552	0	0	4.540000e+01
428.278900	1.346431	city	3	1	1.126272	1.126272	0	1	0	0	CorrectCommission	0.169307	0.852252	0	0	4.510000e+01
429.598541	1.292852	city	9	1	1.407279	1.407279	0	1	0	0	CorrectCommission	1.498256	0.884616	0	0	4.480000e+01
430.898102	1.306221	city	7	1	1.429918	1.429918	0	1	0	0	CorrectCommission	1.605323	0.905431	0	0	4.450000e+01
432.197601	1.292787	city	8	1	1.642709	1.642709	0	1	0	0	CorrectCommission	2.611662	0.912587	0	0	4.420000e+01
433.570404	1.452835	city	10	1	1.023626	1.023626	0	1	0	0	CorrectCommission	0.316132	0.905355	0	0	4.390000e+01
434.969940	1.346237	city	9	1	0.901920	0.901920	0	1	0	0	CorrectCommission	0.891711	0.884580	0	0	4.360000e+01
436.296204	1.306262	city	8	1	0.567435	0.567435	0	1	0	0	CorrectCommission	2.473572	0.852482	0	0	4.330000e+01
437.615753	1.332865	city	4	1	1.225972	1.225972	0	1	0	0	CorrectCommission	0.640810	0.812466	0	0	43
438.955383	1.346385	city	8	1	1.101216	1.101216	0	1	0	0	CorrectCommission	0.050811	0.768768	0	0	4.270000e+01
440.268372	1.279587	mountain	9	0	0.000000	1.044487	1	0	0	0	CorrectOmission	0.217476	0.725899	0	0	4.240000e+01
441.554565	1.292819	city	2	1	1.045882	1.045882	0	1	0	0	CorrectCommission	0.210877	0.688201	1	0	4.210000e+01
442.874115	1.346293	city	7	1	1.095501	1.095501	0	1	0	0	CorrectCommission	0.023783	0.659428	1	0	4.180000e+01
444.207062	1.319584	city	10	1	0.867234	0.867234	0	1	0	0	CorrectCommission	1.055749	0.642415	1	0	4.150000e+01
445.533203	1.332712	city	7	1	1.210712	1.210712	0	1	0	0	CorrectCommission	0.568644	0.638890	1	0	4.120000e+01
446.852783	1.306403	city	5	1	1.045180	1.045180	0	1	0	0	CorrectCommission	0.214199	0.649485	1	0	4.090000e+01
448.159027	1.306105	city	4	1	1.016707	1.016707	0	1	0	0	CorrectCommission	0.348853	0.673684	1	0	4.060000e+01
449.471893	1.319614	city	5	1	1.002708	1.002708	0	1	0	0	CorrectCommission	0.415060	0.710001	1	0	4.030000e+01
450.784851	1.306318	city	4	1	1.043551	1.043551	0	1	0	0	CorrectCommission	0.221899	0.756130	0	0	40
452.091125	1.306236	city	8	1	0.806467	0.806467	0	1	0	0	CorrectCommission	1.343131	0.809183	0	0	3.970000e+01
453.397369	1.306234	city	5	1	0.835482	0.835482	0	1	0	0	CorrectCommission	1.205913	0.865943	0	0	3.940000e+01
454.696930	1.292911	city	9	1	1.206296	1.206296	0	1	0	0	CorrectCommission	0.547758	0.923129	0	0	3.910000e+01
456.016510	1.346221	mountain	7	1	1.038468	1.038468	0	0	1	0	CommissionError	0.245939	0.977702	0	0	3.880000e+01
457.342743	1.306263	city	5	1	0.830733	0.830733	0	1	0	0	CorrectCommission	1.228372	1.027106	0	0	3.850000e+01
458.635590	1.279424	city	1	1	0.595868	0.595868	0	1	0	0	CorrectCommission	2.339106	1.069440	0	0	3.820000e+01
459.935150	1.319719	city	2	1	1.518011	1.518011	0	1	0	0	CorrectCommission	2.021939	1.103599	0	0	3.790000e+01
461.261383	1.332738	city	4	1	0.960257	0.960257	0	1	0	0	CorrectCommission	0.615821	1.129343	0	0	3.760000e+01
462.587616	1.319702	city	10	1	0.712281	0.712281	0	1	0	0	CorrectCommission	1.788557	1.147205	0	0	3.730000e+01
463.907166	1.319412	city	2	1	0.848020	0.848020	0	1	0	0	CorrectCommission	1.146618	1.158219	0	0	37
465.233398	1.333043	city	10	1	1.066514	1.066514	0	1	0	0	CorrectCommission	0.113302	1.163698	0	0	3.670000e+01
466.546387	1.292943	city	7	1	1.466750	1.466750	0	1	0	0	CorrectCommission	1.779512	1.165004	0	0	3.640000e+01
467.885925	1.386144	city	3	1	1.352280	1.352280	0	1	0	0	CorrectCommission	1.238154	1.163238	0	0	3.610000e+01
469.258698	1.359427	city	7	1	1.151540	1.151540	0	1	0	0	CorrectCommission	0.288806	1.159191	0	0	3.580000e+01
470.578308	1.279768	city	10	1	1.182538	1.182538	0	1	0	0	CorrectCommission	0.435404	1.153305	0	0	3.550000e+01
471.857941	1.279483	city	7	1	1.626544	1.626544	0	1	0	0	CorrectCommission	2.535216	1.145767	0	0	3.520000e+01
473.164185	1.332986	city	1	1	0.918509	0.918509	0	1	0	0	CorrectCommission	0.813255	1.136602	0	0	3.490000e+01
474.503784	1.346225	city	6	1	0.650945	0.650945	0	1	0	0	CorrectCommission	2.078631	1.126055	0	0	3.460000e+01
475.836670	1.319542	city	4	1	0.846400	0.846400	0	1	0	0	CorrectCommission	1.154278	1.114609	0	0	3.430000e+01
476.496429	9.476914	break	0	1	0.917862	0.917862	0	0	0	0	ThoughtProbe	0.816316	1.103153	0	34	34
486.633118	1.319557	city	6	1	1.401082	1.401082	0	1	0	0	CorrectCommission	1.468952	1.092878	0	0	3.420588e+01
487.952667	1.319545	city	7	1	1.070651	1.070651	0	1	0	0	CorrectCommission	0.093739	1.085148	0	0	3.441176e+01
489.252228	1.279583	city	10	1	0.861044	0.861044	0	1	0	0	CorrectCommission	1.085023	1.081289	0	0	3.461765e+01
490.558411	1.332754	city	9	1	0.881908	0.881908	0	1	0	0	CorrectCommission	0.986352	1.082276	0	0	3.482353e+01
491.864563	1.279562	city	7	1	1.350400	1.350400	0	1	0	0	CorrectCommission	1.229265	1.088531	0	0	3.502941e+01
493.184204	1.359708	city	1	1	1.031473	1.031473	0	1	0	0	CorrectCommission	0.279024	1.099725	0	0	3.523529e+01
494.537079	1.346083	city	7	1	0.711290	0.711290	0	1	0	0	CorrectCommission	1.793244	1.114713	0	0	3.544118e+01
495.850006	1.279742	city	1	1	0.887997	0.887997	0	1	0	0	CorrectCommission	0.957556	1.131471	0	0	3.564706e+01
497.136230	1.292733	mountain	10	1	0.813775	0.813775	0	0	1	0	CommissionError	1.308569	1.147380	0	0	3.585294e+01
498.455719	1.346212	city	1	1	1.027438	1.027438	0	1	0	0	CorrectCommission	0.298103	1.159474	0	0	3.605882e+01
499.788666	1.319662	city	8	1	0.940434	0.940434	0	1	0	0	CorrectCommission	0.709569	1.164842	0	0	3.626471e+01
501.108215	1.319484	city	3	1	0.771383	0.771383	0	1	0	0	CorrectCommission	1.509052	1.161045	0	0	3.647059e+01
502.434509	1.333101	city	6	1	0.632516	0.632516	0	1	0	0	CorrectCommission	2.165790	1.146577	0	0	3.667647e+01
503.767517	1.332878	city	2	1	0.527809	0.527809	0	1	0	0	CorrectCommission	2.660971	1.121163	0	0	3.688235e+01
505.080322	1.292739	city	1	1	1.713707	1.713707	0	1	0	0	CorrectCommission	2.947432	1.085931	0	0	3.708824e+01
506.393219	1.333068	city	7	1	1.122761	1.122761	0	1	0	0	CorrectCommission	0.152704	1.043334	0	0	3.729412e+01
507.706177	1.292857	city	10	1	1.107494	1.107494	0	1	0	0	CorrectCommission	0.080503	0.996889	0	0	3.750000e+01
509.032379	1.359556	city	6	1	1.018537	1.018537	0	1	0	0	CorrectCommission	0.340198	0.950569	0	0	3.770588e+01
510.371887	1.319420	city	2	1	0.967143	0.967143	0	1	0	0	CorrectCommission	0.583256	0.908414	0	0	3.791176e+01
511.678070	1.292966	city	10	1	1.035211	1.035211	0	1	0	0	CorrectCommission	0.261343	0.874048	0	0	3.811765e+01
512.971069	1.293002	city	4	1	0.974264	0.974264	0	1	0	0	CorrectCommission	0.549576	0.850417	0	0	3.832353e+01
514.263916	1.292738	mountain	2	0	0.000000	1.184771	1	0	0	0	CorrectOmission	0.445961	0.839651	0	0	3.852941e+01
515.550110	1.279577	city	2	1	1.368234	1.368234	0	1	0	0	CorrectCommission	1.313605	0.843123	0	0	3.873529e+01
516.863037	1.346390	city	6	1	1.226159	1.226159	0	1	0	0	CorrectCommission	0.641696	0.861664	0	0	3.894118e+01
518.202637	1.332788	city	10	1	0.906471	0.906471	0	1	0	0	CorrectCommission	0.870188	0.895781	0	0	3.914706e+01
519.508911	1.279686	city	6	1	1.365161	1.365161	0	1	0	0	CorrectCommission	1.299071	0.945791	0	0	3.935294e+01
520.808472	1.319488	city	7	1	1.234201	1.234201	0	1	0	0	CorrectCommission	0.679728	1.011916	0	0	3.955882e+01
522.134644	1.332817	city	6	1	1.016699	1.016699	0	1	0	0	CorrectCommission	0.348892	1.094264	0	0	3.976471e+01
523.474243	1.346374	city	4	1	0.894001	0.894001	0	1	0	0	CorrectCommission	0.929159	1.192608	0	0	3.997059e+01
524.813782	1.332736	city	9	1	0.782938	0.782938	0	1	0	0	CorrectCommission	1.454406	1.306188	0	0	4.017647e+01
526.120056	1.279772	city	1	1	0.858227	0.858227	0	1	0	0	CorrectCommission	1.098346	1.433500	0	0	4.038235e+01
527.419617	1.319372	city	3	1	1.203688	1.203688	0	1	0	0	CorrectCommission	0.535424	1.572213	0	0	4.058824e+01
528.732483	1.306404	city	2	1	0.949333	0.949333	0	1	0	0	CorrectCommission	0.667481	1.719146	0	0	4.079412e+01
529.385681	10.836529	break	0	0	0.000000	0.694979	0	0	0	0	ThoughtProbe	1.870385	1.870385	0	41	41
