onset	duration	trial_type	image_type	Press	ReactionTime	ReactionTime_Interpolated	CorrectOmission	CorrectCommission	CommissionError	OmissionError	response_type	nonsmoothVarianceTimeCourse	VarianceTimeCourse	In_the_Zone	ThoughtProbe	ThoughtProbe_Interpolated
0.652400	1.279701	city	4	1	1.017726	1.017726	0	1	0	0	CorrectCommission	0.888055	0.888055	0	0	85
1.932043	1.279583	city	3	1	1.017533	1.017533	0	1	0	0	CorrectCommission	0.889166	0.837108	0	0	85
3.211617	1.279565	city	9	1	1.021230	1.021230	0	1	0	0	CorrectCommission	0.867870	0.787799	0	0	85
4.491183	1.279568	city	6	1	1.074150	1.074150	0	1	0	0	CorrectCommission	0.563048	0.741582	0	0	85
5.770757	1.279580	mountain	3	0	0.000000	1.172397	1	0	0	0	CorrectOmission	0.002862	0.699593	1	0	85
7.050350	1.279605	city	1	1	1.183323	1.183323	0	1	0	0	CorrectCommission	0.065797	0.662566	1	0	85
8.329930	1.279556	city	3	1	0.974280	0.974280	0	1	0	0	CorrectCommission	1.138307	0.630826	1	0	85
9.609507	1.279598	city	10	1	1.071378	1.071378	0	1	0	0	CorrectCommission	0.579017	0.604409	1	0	85
10.889084	1.279556	city	6	1	1.072347	1.072347	0	1	0	0	CorrectCommission	0.573435	0.583216	1	0	85
12.168583	1.279442	city	8	1	1.071112	1.071112	0	1	0	0	CorrectCommission	0.580545	0.567181	1	0	85
13.448174	1.279742	city	6	1	1.039973	1.039973	0	1	0	0	CorrectCommission	0.759909	0.556413	1	0	85
14.727822	1.279553	city	8	1	1.037660	1.037660	0	1	0	0	CorrectCommission	0.773233	0.551249	1	0	85
16.007330	1.279461	city	1	1	1.094628	1.094628	0	1	0	0	CorrectCommission	0.445091	0.552258	1	0	85
17.286921	1.279721	city	5	1	1.177603	1.177603	0	1	0	0	CorrectCommission	0.032846	0.560151	1	0	85
18.566559	1.279557	city	7	1	1.139228	1.139228	0	1	0	0	CorrectCommission	0.188193	0.575628	1	0	85
19.846128	1.279584	city	4	1	1.085208	1.085208	0	1	0	0	CorrectCommission	0.499350	0.599167	1	0	85
21.125708	1.279574	city	8	1	1.038260	1.038260	0	1	0	0	CorrectCommission	0.769777	0.630848	1	0	85
22.405287	1.279583	city	10	1	1.071302	1.071302	0	1	0	0	CorrectCommission	0.579452	0.670166	1	0	85
23.684868	1.279582	mountain	3	0	0.000000	1.197895	1	0	0	0	CorrectOmission	0.149729	0.715957	1	0	85
24.964453	1.279586	city	5	1	1.293785	1.293785	0	1	0	0	CorrectCommission	0.702066	0.766379	0	0	85
26.244030	1.279567	city	6	1	1.234721	1.234721	0	1	0	0	CorrectCommission	0.361854	0.818940	0	0	85
27.523556	1.279485	city	9	1	0.966894	0.966894	0	1	0	0	CorrectCommission	1.180851	0.870714	0	0	85
28.803144	1.279694	city	7	1	0.982119	0.982119	0	1	0	0	CorrectCommission	1.093150	0.918531	0	0	85
30.082771	1.279561	city	3	1	0.822455	0.822455	0	1	0	0	CorrectCommission	2.012828	0.959263	0	0	85
31.369017	1.292930	city	2	1	0.964721	0.964721	0	1	0	0	CorrectCommission	1.193364	0.990102	0	0	85
32.655258	1.279553	city	4	1	1.127096	1.127096	0	1	0	0	CorrectCommission	0.258075	1.008895	0	0	85
33.934826	1.279579	city	3	1	0.923711	0.923711	0	1	0	0	CorrectCommission	1.429589	1.014364	0	0	85
35.220997	1.292769	city	6	1	1.034004	1.034004	0	1	0	0	CorrectCommission	0.794293	1.006223	0	0	85
36.507187	1.279605	city	1	1	0.855174	0.855174	0	1	0	0	CorrectCommission	1.824365	0.985335	0	0	85
37.793430	1.292885	city	10	1	0.727205	0.727205	0	1	0	0	CorrectCommission	2.561475	0.953584	0	0	85
39.079746	1.279745	city	3	1	0.969334	0.969334	0	1	0	0	CorrectCommission	1.166793	0.913757	0	0	85
40.366081	1.292929	city	8	1	1.099058	1.099058	0	1	0	0	CorrectCommission	0.419577	0.869265	0	0	85
41.652325	1.279553	city	7	1	1.177841	1.177841	0	1	0	0	CorrectCommission	0.034221	0.823687	0	0	85
42.292099	8.530355	break	0	0	0.000000	1.140220	0	0	0	0	ThoughtProbe	0.182480	0.780363	0	85	85
51.462334	1.279759	city	9	1	1.083762	1.083762	0	1	0	0	CorrectCommission	0.507683	0.742028	0	0	8.511765e+01
52.748661	1.292898	city	8	1	1.106034	1.106034	0	1	0	0	CorrectCommission	0.379392	0.710545	1	0	8.523529e+01
54.034901	1.279576	city	2	1	1.208258	1.208258	0	1	0	0	CorrectCommission	0.209424	0.686784	1	0	8.535294e+01
55.314400	1.279425	mountain	8	0	0.000000	1.326621	1	0	0	0	CorrectOmission	0.891203	0.670697	1	0	8.547059e+01
56.593895	1.279566	city	6	1	1.344877	1.344877	0	1	0	0	CorrectCommission	0.996361	0.661460	1	0	8.558824e+01
57.873466	1.279574	city	2	1	1.146782	1.146782	0	1	0	0	CorrectCommission	0.144685	0.657782	1	0	8.570588e+01
59.159794	1.293087	city	7	1	0.993548	0.993548	0	1	0	0	CorrectCommission	1.027323	0.658194	1	0	8.582353e+01
60.452705	1.292734	city	8	1	0.878231	0.878231	0	1	0	0	CorrectCommission	1.691555	0.661228	1	0	8.594118e+01
61.738892	1.279640	city	3	1	1.146050	1.146050	0	1	0	0	CorrectCommission	0.148898	0.665643	1	0	8.605882e+01
63.025215	1.293002	city	5	1	1.150011	1.150011	0	1	0	0	CorrectCommission	0.126086	0.670528	1	0	8.617647e+01
64.318169	1.292900	city	3	1	1.081267	1.081267	0	1	0	0	CorrectCommission	0.522056	0.675230	1	0	8.629412e+01
65.605202	1.281171	city	4	1	1.038052	1.038052	0	1	0	0	CorrectCommission	0.770973	0.679333	1	0	8.641176e+01
66.891457	1.291339	city	7	1	1.048912	1.048912	0	1	0	0	CorrectCommission	0.708421	0.682615	1	0	8.652941e+01
68.176834	1.279424	city	9	1	1.396331	1.396331	0	1	0	0	CorrectCommission	1.292734	0.684972	1	0	8.664706e+01
69.463066	1.293041	city	2	1	1.195789	1.195789	0	1	0	0	CorrectCommission	0.137599	0.686308	1	0	8.676471e+01
70.749390	1.279601	city	1	1	1.025287	1.025287	0	1	0	0	CorrectCommission	0.844504	0.686583	1	0	8.688235e+01
72.028969	1.279556	city	6	1	0.976358	0.976358	0	1	0	0	CorrectCommission	1.126336	0.685703	1	0	87
73.321869	1.306238	city	4	1	1.066710	1.066710	0	1	0	0	CorrectCommission	0.605901	0.683519	1	0	8.711765e+01
74.614777	1.279578	city	2	1	1.196098	1.196098	0	1	0	0	CorrectCommission	0.139381	0.679923	1	0	8.723529e+01
75.894356	1.279578	mountain	1	0	0.000000	1.307042	1	0	0	0	CorrectOmission	0.778426	0.674778	1	0	8.735294e+01
77.180542	1.292803	city	5	1	1.314067	1.314067	0	1	0	0	CorrectCommission	0.818890	0.667990	1	0	8.747059e+01
78.466713	1.279539	city	9	1	1.131698	1.131698	0	1	0	0	CorrectCommission	0.231570	0.659571	1	0	8.758824e+01
79.746346	1.279727	city	4	1	0.938337	0.938337	0	1	0	0	CorrectCommission	1.345339	0.649709	1	0	8.770588e+01
81.025925	1.279433	city	9	1	1.018279	1.018279	0	1	0	0	CorrectCommission	0.884867	0.638760	1	0	8.782353e+01
82.305496	1.279713	city	4	1	1.031165	1.031165	0	1	0	0	CorrectCommission	0.810644	0.627334	1	0	8.794118e+01
83.585167	1.279620	city	1	1	1.134163	1.134163	0	1	0	0	CorrectCommission	0.217369	0.616183	1	0	8.805882e+01
84.864754	1.279564	city	2	1	1.128863	1.128863	0	1	0	0	CorrectCommission	0.247895	0.606153	1	0	8.817647e+01
86.177650	1.346220	city	7	1	1.269118	1.269118	0	1	0	0	CorrectCommission	0.559984	0.598068	1	0	8.829412e+01
87.490540	1.279568	city	3	1	0.981129	0.981129	0	1	0	0	CorrectCommission	1.098856	0.592568	1	0	8.841176e+01
88.770134	1.279606	city	1	1	1.141720	1.141720	0	1	0	0	CorrectCommission	0.173842	0.590013	1	0	8.852941e+01
90.049721	1.279574	city	4	1	1.242960	1.242960	0	1	0	0	CorrectCommission	0.409311	0.590423	1	0	8.864706e+01
91.329300	1.279579	city	1	1	1.300619	1.300619	0	1	0	0	CorrectCommission	0.741431	0.593399	1	0	8.876471e+01
92.608864	1.279549	city	3	1	1.234295	1.234295	0	1	0	0	CorrectCommission	0.359399	0.598157	1	0	8.888235e+01
96.034325	5.571383	break	0	0	0.000000	1.173774	0	0	0	0	ThoughtProbe	0.010793	0.603664	1	89	89
99.459801	1.279557	city	4	1	1.084883	1.084883	0	1	0	0	CorrectCommission	0.501223	0.608761	1	0	8.860000e+01
100.746109	1.293061	city	8	1	0.933451	0.933451	0	1	0	0	CorrectCommission	1.373482	0.612333	1	0	8.820000e+01
102.039101	1.292933	mountain	2	0	0.000000	1.260621	1	0	0	0	CorrectOmission	0.511036	0.613518	1	0	8.780000e+01
103.332024	1.292903	city	6	1	1.531776	1.531776	0	1	0	0	CorrectCommission	2.072912	0.611850	1	0	8.740000e+01
104.631577	1.306213	city	8	1	1.212303	1.212303	0	1	0	0	CorrectCommission	0.232726	0.607236	1	0	87
105.924484	1.279602	city	2	1	1.246581	1.246581	0	1	0	0	CorrectCommission	0.430168	0.600021	1	0	8.660000e+01
107.210747	1.292909	city	10	1	1.201937	1.201937	0	1	0	0	CorrectCommission	0.173012	0.590765	1	0	8.620000e+01
108.503563	1.292727	city	2	1	1.243285	1.243285	0	1	0	0	CorrectCommission	0.411182	0.580168	1	0	8.580000e+01
109.796463	1.293083	city	7	1	1.133990	1.133990	0	1	0	0	CorrectCommission	0.218367	0.568879	1	0	8.540000e+01
111.082794	1.279574	city	6	1	1.017901	1.017901	0	1	0	0	CorrectCommission	0.887046	0.557438	1	0	85
112.362358	1.279556	city	4	1	1.084046	1.084046	0	1	0	0	CorrectCommission	0.506048	0.546251	1	0	8.460000e+01
113.641945	1.279612	mountain	1	0	0.000000	1.241044	1	0	0	0	CorrectOmission	0.398270	0.535654	1	0	8.420000e+01
114.921478	1.279466	city	6	1	1.309438	1.309438	0	1	0	0	CorrectCommission	0.792226	0.526018	1	0	8.380000e+01
116.214386	1.306346	city	3	1	1.109771	1.109771	0	1	0	0	CorrectCommission	0.357867	0.517849	1	0	8.340000e+01
117.507355	1.279582	city	7	1	0.926409	0.926409	0	1	0	0	CorrectCommission	1.414047	0.511862	1	0	83
118.786934	1.279577	city	4	1	1.197218	1.197218	0	1	0	0	CorrectCommission	0.145830	0.508938	1	0	8.260000e+01
120.073166	1.292887	city	2	1	1.210925	1.210925	0	1	0	0	CorrectCommission	0.224783	0.510077	1	0	8.220000e+01
121.359291	1.279375	city	6	1	1.142518	1.142518	0	1	0	0	CorrectCommission	0.169242	0.516199	1	0	8.180000e+01
122.638824	1.279692	city	8	1	1.031235	1.031235	0	1	0	0	CorrectCommission	0.810243	0.527922	1	0	8.140000e+01
123.925186	1.293020	city	2	1	1.149682	1.149682	0	1	0	0	CorrectCommission	0.127976	0.545349	1	0	81
125.218140	1.292893	city	3	1	1.158385	1.158385	0	1	0	0	CorrectCommission	0.077850	0.567967	1	0	8.060000e+01
126.504364	1.279549	city	9	1	1.143701	1.143701	0	1	0	0	CorrectCommission	0.162429	0.594575	1	0	8.020000e+01
127.783936	1.279608	city	5	1	1.073473	1.073473	0	1	0	0	CorrectCommission	0.566949	0.623313	1	0	7.980000e+01
129.063538	1.279594	city	3	1	1.394745	1.394745	0	1	0	0	CorrectCommission	1.283601	0.651903	1	0	7.940000e+01
130.343079	1.279469	city	6	1	1.039324	1.039324	0	1	0	0	CorrectCommission	0.763650	0.677970	1	0	79
131.629318	1.293024	city	4	1	1.157507	1.157507	0	1	0	0	CorrectCommission	0.082907	0.699386	1	0	7.860000e+01
132.915604	1.279551	city	6	1	0.865727	0.865727	0	1	0	0	CorrectCommission	1.763576	0.714655	1	0	7.820000e+01
134.195145	1.279514	city	3	1	0.928470	0.928470	0	1	0	0	CorrectCommission	1.402176	0.723097	1	0	7.780000e+01
135.474655	1.279509	mountain	6	0	0.000000	1.265316	1	0	0	0	CorrectOmission	0.538083	0.725094	1	0	7.740000e+01
136.754257	1.279718	city	2	1	1.472017	1.472017	0	1	0	0	CorrectCommission	1.728691	0.722009	1	0	77
138.033905	1.279575	city	4	1	1.144320	1.144320	0	1	0	0	CorrectCommission	0.158862	0.715945	1	0	7.660000e+01
139.313461	1.279524	city	2	1	1.248514	1.248514	0	1	0	0	CorrectCommission	0.441303	0.709488	1	0	7.620000e+01
140.599716	1.292974	city	5	1	1.252740	1.252740	0	1	0	0	CorrectCommission	0.465645	0.705222	1	0	7.580000e+01
141.886002	1.279603	city	3	1	1.146808	1.146808	0	1	0	0	CorrectCommission	0.144534	0.705349	1	0	7.540000e+01
143.165588	1.279570	city	4	1	1.038793	1.038793	0	1	0	0	CorrectCommission	0.766705	0.711327	1	0	75
144.445068	1.279398	city	2	1	1.208830	1.208830	0	1	0	0	CorrectCommission	0.212718	0.723615	1	0	7.460000e+01
145.724655	1.279766	city	4	1	1.303622	1.303622	0	1	0	0	CorrectCommission	0.758727	0.741622	0	0	7.420000e+01
147.010941	1.292817	city	9	1	1.212721	1.212721	0	1	0	0	CorrectCommission	0.235130	0.763795	0	0	7.380000e+01
148.303772	1.292854	city	8	1	1.087739	1.087739	0	1	0	0	CorrectCommission	0.484773	0.787884	0	0	7.340000e+01
151.536087	5.171771	break	0	0	0.000000	1.377895	0	0	0	0	ThoughtProbe	1.186545	0.811240	0	73	73
154.761673	1.279406	city	4	1	1.594988	1.594988	0	1	0	0	CorrectCommission	2.437017	0.831191	0	0	7.250000e+01
156.067749	1.332736	city	7	1	1.250818	1.250818	0	1	0	0	CorrectCommission	0.454573	0.845380	0	0	72
157.374054	1.279881	city	1	1	0.983228	0.983228	0	1	0	0	CorrectCommission	1.086764	0.852121	0	0	7.150000e+01
158.653793	1.279584	city	4	1	1.022861	1.022861	0	1	0	0	CorrectCommission	0.858477	0.850428	0	0	71
159.933365	1.279579	city	9	1	0.986518	0.986518	0	1	0	0	CorrectCommission	1.067812	0.840137	0	0	7.050000e+01
161.219543	1.292763	city	10	1	1.065331	1.065331	0	1	0	0	CorrectCommission	0.613847	0.821819	0	0	70
162.519104	1.306347	city	3	1	1.276707	1.276707	0	1	0	0	CorrectCommission	0.603693	0.796696	0	0	6.950000e+01
163.818726	1.292904	mountain	3	0	0.000000	1.384356	1	0	0	0	CorrectOmission	1.223758	0.766451	0	0	69
165.104919	1.279495	city	10	1	1.390742	1.390742	0	1	0	0	CorrectCommission	1.260543	0.732994	0	0	6.850000e+01
166.384445	1.279565	city	3	1	1.298330	1.298330	0	1	0	0	CorrectCommission	0.728244	0.698316	1	0	68
167.670761	1.293041	city	9	1	1.209093	1.209093	0	1	0	0	CorrectCommission	0.214232	0.664329	1	0	6.750000e+01
168.957138	1.279724	city	3	1	1.142755	1.142755	0	1	0	0	CorrectCommission	0.167877	0.632607	1	0	67
170.236725	1.279435	city	10	1	1.095188	1.095188	0	1	0	0	CorrectCommission	0.441865	0.604346	1	0	6.650000e+01
171.516174	1.279469	city	9	1	1.032469	1.032469	0	1	0	0	CorrectCommission	0.803131	0.580271	1	0	66
172.795685	1.279569	city	10	1	1.231954	1.231954	0	1	0	0	CorrectCommission	0.345915	0.560662	1	0	6.550000e+01
174.081985	1.293028	city	5	1	1.204685	1.204685	0	1	0	0	CorrectCommission	0.188840	0.545441	1	0	65
175.381592	1.306181	mountain	9	1	1.106753	1.106753	0	0	1	0	CommissionError	0.375251	0.534263	1	0	6.450000e+01
176.674515	1.279658	city	1	1	1.304225	1.304225	0	1	0	0	CorrectCommission	0.762197	0.526681	1	0	64
177.960800	1.292911	city	4	1	1.312505	1.312505	0	1	0	0	CorrectCommission	0.809895	0.522265	1	0	6.350000e+01
179.247040	1.279584	city	10	1	1.018050	1.018050	0	1	0	0	CorrectCommission	0.886188	0.520707	1	0	6.300000e+01
180.526566	1.279476	mountain	3	0	0.000000	1.148566	1	0	0	0	CorrectOmission	0.134407	0.521864	1	0	6.250000e+01
181.806152	1.279676	city	4	1	1.306151	1.306151	0	1	0	0	CorrectCommission	0.773294	0.525673	1	0	62
183.092438	1.292903	city	3	1	1.092902	1.092902	0	1	0	0	CorrectCommission	0.455033	0.532021	1	0	6.150000e+01
184.385345	1.292915	city	1	1	1.140780	1.140780	0	1	0	0	CorrectCommission	0.179254	0.540736	1	0	61
185.678253	1.292888	city	9	1	1.153750	1.153750	0	1	0	0	CorrectCommission	0.104548	0.551390	1	0	6.050000e+01
186.977737	1.306092	city	3	1	1.103689	1.103689	0	1	0	0	CorrectCommission	0.392899	0.563305	1	0	60
188.270584	1.279605	city	2	1	1.236463	1.236463	0	1	0	0	CorrectCommission	0.371884	0.575541	1	0	5.950000e+01
189.570175	1.319568	mountain	6	0	0.000000	1.282318	1	0	0	0	CorrectOmission	0.636013	0.587073	1	0	59
190.869736	1.279556	city	10	1	1.347180	1.347180	0	1	0	0	CorrectCommission	1.009623	0.596937	1	0	5.850000e+01
192.155975	1.292908	city	4	1	1.536974	1.536974	0	1	0	0	CorrectCommission	2.102852	0.604422	1	0	58
193.448929	1.293009	city	10	1	1.207870	1.207870	0	1	0	0	CorrectCommission	0.207190	0.609211	1	0	5.750000e+01
194.741913	1.292948	city	3	1	1.171299	1.171299	0	1	0	0	CorrectCommission	0.003464	0.611549	1	0	57
196.041504	1.306255	city	5	1	1.090124	1.090124	0	1	0	0	CorrectCommission	0.471037	0.612170	1	0	5.650000e+01
197.347733	1.306210	city	9	1	0.994659	0.994659	0	1	0	0	CorrectCommission	1.020919	0.612262	1	0	56
198.647293	1.292910	city	1	1	1.035046	1.035046	0	1	0	0	CorrectCommission	0.788288	0.613359	1	0	5.550000e+01
199.933548	1.279590	city	3	1	1.229891	1.229891	0	1	0	0	CorrectCommission	0.334032	0.617169	1	0	55
201.213135	1.279591	city	6	1	1.127461	1.127461	0	1	0	0	CorrectCommission	0.255970	0.625401	1	0	5.450000e+01
202.506058	1.306232	city	2	1	1.108842	1.108842	0	1	0	0	CorrectCommission	0.363220	0.639580	1	0	54
203.805573	1.292803	city	5	1	1.185090	1.185090	0	1	0	0	CorrectCommission	0.075973	0.660849	1	0	5.350000e+01
205.091812	1.279687	city	9	1	1.514373	1.514373	0	1	0	0	CorrectCommission	1.972669	0.689863	1	0	53
206.391449	1.319569	city	6	1	1.204450	1.204450	0	1	0	0	CorrectCommission	0.187492	0.726612	1	0	5.250000e+01
207.691010	1.279557	city	3	1	1.192671	1.192671	0	1	0	0	CorrectCommission	0.119641	0.770433	0	0	52
208.977249	1.292933	city	2	1	1.358872	1.358872	0	1	0	0	CorrectCommission	1.076973	0.819884	0	0	5.150000e+01
210.263443	1.279460	city	1	1	1.248182	1.248182	0	1	0	0	CorrectCommission	0.439390	0.872782	0	0	51
211.542969	1.279573	city	3	1	1.362531	1.362531	0	1	0	0	CorrectCommission	1.098047	0.926409	0	0	5.050000e+01
212.182755	8.943739	break	0	0	0.000000	1.156323	0	0	0	0	ThoughtProbe	0.089726	0.977655	0	50	50
221.779617	1.306262	city	8	1	1.051209	1.051209	0	1	0	0	CorrectCommission	0.695189	1.023412	0	0	4.923529e+01
223.072586	1.279659	city	7	1	1.468840	1.468840	0	1	0	0	CorrectCommission	1.710396	1.060874	0	0	4.847059e+01
224.352188	1.279562	mountain	8	0	0.000000	1.625017	1	0	0	0	CorrectOmission	2.609985	1.087958	0	0	4.770588e+01
225.631775	1.279598	city	1	1	1.593674	1.593674	0	1	0	0	CorrectCommission	2.429445	1.103534	0	0	4.694118e+01
226.924683	1.306213	city	9	1	1.448745	1.448745	0	1	0	0	CorrectCommission	1.594647	1.107589	0	0	4.617647e+01
228.217590	1.279600	city	1	1	1.087134	1.087134	0	1	0	0	CorrectCommission	0.488258	1.101175	0	0	4.541176e+01
229.503845	1.292910	city	8	1	1.111741	1.111741	0	1	0	0	CorrectCommission	0.346521	1.086218	0	0	4.464706e+01
230.796738	1.292889	city	3	1	0.988685	0.988685	0	1	0	0	CorrectCommission	1.055330	1.065190	0	0	4.388235e+01
232.089645	1.292927	city	10	1	1.033952	1.033952	0	1	0	0	CorrectCommission	0.794591	1.040718	0	0	4.311765e+01
233.375885	1.279561	city	2	1	1.301076	1.301076	0	1	0	0	CorrectCommission	0.744061	1.015324	0	0	4.235294e+01
234.662109	1.292867	city	4	1	1.429693	1.429693	0	1	0	0	CorrectCommission	1.484904	0.991163	0	0	4.158824e+01
235.975006	1.332932	city	9	1	1.225885	1.225885	0	1	0	0	CorrectCommission	0.310955	0.969868	0	0	4.082353e+01
237.281265	1.279586	city	8	1	0.985385	0.985385	0	1	0	0	CorrectCommission	1.074342	0.952550	0	0	4.005882e+01
238.560837	1.279571	city	1	1	0.878065	0.878065	0	1	0	0	CorrectCommission	1.692509	0.939719	0	0	3.929412e+01
239.860413	1.319571	city	2	1	0.987632	0.987632	0	1	0	0	CorrectCommission	1.061400	0.931374	0	0	3.852941e+01
241.160004	1.279617	city	6	1	1.259916	1.259916	0	1	0	0	CorrectCommission	0.506977	0.927016	0	0	3.776471e+01
242.466171	1.332700	city	10	1	1.204131	1.204131	0	1	0	0	CorrectCommission	0.185651	0.925688	0	0	37
243.772308	1.279600	city	8	1	1.356811	1.356811	0	1	0	0	CorrectCommission	1.065099	0.926034	0	0	3.623529e+01
245.058563	1.292890	city	3	1	1.088038	1.088038	0	1	0	0	CorrectCommission	0.483052	0.926425	0	0	3.547059e+01
246.344864	1.279727	mountain	1	0	0.000000	1.103511	1	0	0	0	CorrectOmission	0.393924	0.925187	0	0	3.470588e+01
247.624527	1.279580	city	3	1	1.322682	1.322682	0	1	0	0	CorrectCommission	0.868513	0.920870	0	0	3.394118e+01
248.917435	1.306243	city	10	1	1.665000	1.665000	0	1	0	0	CorrectCommission	2.840291	0.912526	0	0	3.317647e+01
250.217010	1.292905	city	2	1	1.469273	1.469273	0	1	0	0	CorrectCommission	1.712891	0.899905	0	0	3.241176e+01
251.509872	1.292826	city	10	1	1.088927	1.088927	0	1	0	0	CorrectCommission	0.477929	0.883690	0	0	3.164706e+01
252.796112	1.279657	city	2	1	1.356020	1.356020	0	1	0	0	CorrectCommission	1.060545	0.865496	0	0	3.088235e+01
254.089066	1.306261	city	3	1	1.170648	1.170648	0	1	0	0	CorrectCommission	0.007212	0.847657	0	0	3.011765e+01
255.381989	1.279556	city	5	1	1.364562	1.364562	0	1	0	0	CorrectCommission	1.109744	0.833066	0	0	2.935294e+01
256.681549	1.319566	city	4	1	1.222879	1.222879	0	1	0	0	CorrectCommission	0.293642	0.824703	0	0	2.858824e+01
257.994446	1.306259	city	3	1	1.057916	1.057916	0	1	0	0	CorrectCommission	0.656558	0.825315	0	0	2.782353e+01
259.287354	1.279554	city	1	1	1.308183	1.308183	0	1	0	0	CorrectCommission	0.784998	0.836948	0	0	2.705882e+01
260.573578	1.292850	city	4	1	1.248815	1.248815	0	1	0	0	CorrectCommission	0.443036	0.860662	0	0	2.629412e+01
261.866486	1.292993	city	5	1	1.154982	1.154982	0	1	0	0	CorrectCommission	0.097452	0.896323	0	0	2.552941e+01
263.166107	1.306240	city	2	1	1.106401	1.106401	0	1	0	0	CorrectCommission	0.377279	0.942479	0	0	2.476471e+01
267.811157	7.983862	break	0	0	0.000000	1.366404	0	0	0	0	ThoughtProbe	1.120357	0.996427	0	24	24
272.449615	1.293063	city	2	1	1.571282	1.571282	0	1	0	0	CorrectCommission	2.300464	1.054361	0	0	2.415000e+01
273.762604	1.332905	city	9	1	1.357324	1.357324	0	1	0	0	CorrectCommission	1.068053	1.111637	0	0	2.430000e+01
275.075531	1.292951	city	6	1	1.155536	1.155536	0	1	0	0	CorrectCommission	0.094257	1.163253	0	0	2.445000e+01
276.375092	1.306178	city	10	1	0.894397	0.894397	0	1	0	0	CorrectCommission	1.598439	1.204286	0	0	2.460000e+01
277.674652	1.292931	city	3	1	1.146181	1.146181	0	1	0	0	CorrectCommission	0.148145	1.230391	0	0	2.475000e+01
278.960907	1.279562	city	6	1	1.630120	1.630120	0	1	0	0	CorrectCommission	2.639380	1.238394	0	0	2.490000e+01
280.240479	1.279597	city	8	1	1.745114	1.745114	0	1	0	0	CorrectCommission	3.301751	1.226627	0	0	2.505000e+01
281.533356	1.306145	city	4	1	0.777744	0.777744	0	1	0	0	CorrectCommission	2.270366	1.195291	0	0	2.520000e+01
282.832855	1.292873	mountain	8	0	0.000000	1.034034	1	0	0	0	CorrectOmission	0.794118	1.146514	0	0	2.535000e+01
284.119141	1.279685	city	7	1	1.525124	1.525124	0	1	0	0	CorrectCommission	2.034594	1.084069	0	0	2.550000e+01
285.398773	1.279621	city	2	1	1.262154	1.262154	0	1	0	0	CorrectCommission	0.519871	1.012855	0	0	2.565000e+01
286.698273	1.319362	city	1	1	1.049677	1.049677	0	1	0	0	CorrectCommission	0.704013	0.938381	0	0	2.580000e+01
288.004517	1.293093	city	7	1	1.187714	1.187714	0	1	0	0	CorrectCommission	0.091091	0.865886	0	0	2.595000e+01
289.297455	1.292799	city	10	1	1.167520	1.167520	0	1	0	0	CorrectCommission	0.025233	0.799775	0	0	2.610000e+01
290.583679	1.279665	mountain	9	0	0.000000	1.157095	1	0	0	0	CorrectOmission	0.085276	0.743064	0	0	2.625000e+01
291.863312	1.279605	city	4	1	1.146255	1.146255	0	1	0	0	CorrectCommission	0.147716	0.697195	1	0	2.640000e+01
293.149536	1.292869	city	1	1	1.124813	1.124813	0	1	0	0	CorrectCommission	0.271226	0.662082	1	0	2.655000e+01
294.449036	1.306116	city	6	1	1.049134	1.049134	0	1	0	0	CorrectCommission	0.707142	0.636410	1	0	2.670000e+01
295.755310	1.306387	city	10	1	0.947852	0.947852	0	1	0	0	CorrectCommission	1.290531	0.618110	1	0	2.685000e+01
297.061615	1.306224	city	9	1	0.882658	0.882658	0	1	0	0	CorrectCommission	1.666058	0.604862	1	0	27
298.354462	1.279505	city	5	1	1.031606	1.031606	0	1	0	0	CorrectCommission	0.808104	0.594524	1	0	2.715000e+01
299.640717	1.293024	city	10	1	1.154606	1.154606	0	1	0	0	CorrectCommission	0.099615	0.585538	1	0	2.730000e+01
300.927002	1.279532	city	3	1	1.177997	1.177997	0	1	0	0	CorrectCommission	0.035120	0.577015	1	0	2.745000e+01
302.213165	1.292756	city	2	1	1.338169	1.338169	0	1	0	0	CorrectCommission	0.957723	0.568775	1	0	2.760000e+01
303.526062	1.333069	city	9	1	1.234816	1.234816	0	1	0	0	CorrectCommission	0.362402	0.561253	1	0	2.775000e+01
304.845673	1.306129	city	7	1	1.106144	1.106144	0	1	0	0	CorrectCommission	0.378758	0.555359	1	0	2.790000e+01
306.151886	1.306323	city	4	1	1.159886	1.159886	0	1	0	0	CorrectCommission	0.069202	0.552338	1	0	2.805000e+01
307.484772	1.359415	city	7	1	1.020561	1.020561	0	1	0	0	CorrectCommission	0.871725	0.553547	1	0	2.820000e+01
308.804321	1.279717	city	8	1	0.974692	0.974692	0	1	0	0	CorrectCommission	1.135933	0.560366	1	0	2.835000e+01
310.083984	1.279576	mountain	3	0	0.000000	1.154582	1	0	0	0	CorrectOmission	0.099756	0.574180	1	0	2.850000e+01
311.363556	1.279608	city	3	1	1.300565	1.300565	0	1	0	0	CorrectCommission	0.741120	0.596292	1	0	2.865000e+01
312.643097	1.279465	city	9	1	1.152979	1.152979	0	1	0	0	CorrectCommission	0.108988	0.627731	1	0	2.880000e+01
313.922607	1.279527	city	5	1	1.093068	1.093068	0	1	0	0	CorrectCommission	0.454077	0.669270	1	0	2.895000e+01
315.215424	1.306155	city	8	1	1.281395	1.281395	0	1	0	0	CorrectCommission	0.630695	0.721205	1	0	2.910000e+01
316.515106	1.293157	city	4	1	1.220834	1.220834	0	1	0	0	CorrectCommission	0.281865	0.783279	0	0	2.925000e+01
317.801453	1.279564	city	3	1	1.259993	1.259993	0	1	0	0	CorrectCommission	0.507421	0.854576	0	0	2.940000e+01
319.087524	1.292599	city	8	1	1.094429	1.094429	0	1	0	0	CorrectCommission	0.446242	0.933467	0	0	2.955000e+01
320.373718	1.279753	city	4	1	1.468847	1.468847	0	1	0	0	CorrectCommission	1.710434	1.017616	0	0	2.970000e+01
321.653381	1.279592	city	7	1	1.467994	1.467994	0	1	0	0	CorrectCommission	1.705518	1.104019	0	0	2.985000e+01
322.293182	8.237401	break	0	0	0.000000	1.142812	0	0	0	0	ThoughtProbe	0.167551	1.189164	0	30	30
331.183624	1.306104	mountain	8	1	0.840871	0.840871	0	0	1	0	CommissionError	1.906752	1.269238	0	0	3.095652e+01
332.476562	1.279741	mountain	6	0	0.000000	0.909739	1	0	0	0	CorrectOmission	1.510066	1.340239	0	0	3.191304e+01
333.769501	1.306129	city	8	1	1.052494	1.052494	0	1	0	0	CorrectCommission	0.687785	1.398468	0	0	3.286957e+01
335.062317	1.279533	city	5	1	0.972215	0.972215	0	1	0	0	CorrectCommission	1.150201	1.440802	0	0	3.382609e+01
336.348572	1.292947	mountain	6	1	0.716374	0.716374	0	0	1	0	CommissionError	2.623863	1.465007	0	0	3.478261e+01
337.654846	1.319653	city	5	1	1.835097	1.835097	0	1	0	0	CorrectCommission	3.820058	1.470037	0	0	3.573913e+01
338.954407	1.279451	city	8	1	1.527097	1.527097	0	1	0	0	CorrectCommission	2.045955	1.456242	0	0	3.669565e+01
340.234009	1.279730	city	4	1	1.041133	1.041133	0	1	0	0	CorrectCommission	0.753227	1.425417	0	0	3.765217e+01
341.526978	1.306211	city	6	1	0.888556	0.888556	0	1	0	0	CorrectCommission	1.632082	1.380587	0	0	3.860870e+01
342.833191	1.306242	city	9	1	0.989828	0.989828	0	1	0	0	CorrectCommission	1.048746	1.325632	0	0	3.956522e+01
344.152771	1.332893	city	7	1	1.056411	1.056411	0	1	0	0	CorrectCommission	0.665225	1.264939	0	0	4.052174e+01
345.472351	1.306258	city	4	1	0.902890	0.902890	0	1	0	0	CorrectCommission	1.549515	1.202889	0	0	4.147826e+01
346.765167	1.279406	city	5	1	0.935781	0.935781	0	1	0	0	CorrectCommission	1.360064	1.143355	0	0	4.243478e+01
348.044678	1.279589	city	8	1	1.017933	1.017933	0	1	0	0	CorrectCommission	0.886862	1.089407	0	0	4.339130e+01
349.324341	1.279751	city	4	1	1.190467	1.190467	0	1	0	0	CorrectCommission	0.106945	1.043042	0	0	4.434783e+01
350.623901	1.319399	city	10	1	1.069848	1.069848	0	1	0	0	CorrectCommission	0.587827	1.005051	0	0	4.530435e+01
351.923462	1.279721	city	8	1	1.071458	1.071458	0	1	0	0	CorrectCommission	0.578554	0.975130	0	0	4.626087e+01
353.203125	1.279573	city	2	1	0.981055	0.981055	0	1	0	0	CorrectCommission	1.099282	0.952105	0	0	4.721739e+01
354.489349	1.292892	city	10	1	0.986985	0.986985	0	1	0	0	CorrectCommission	1.065122	0.934218	0	0	4.817391e+01
355.775543	1.279484	city	2	1	1.469746	1.469746	0	1	0	0	CorrectCommission	1.715614	0.919566	0	0	4.913043e+01
357.068451	1.306348	city	4	1	1.154130	1.154130	0	1	0	0	CorrectCommission	0.102359	0.906444	0	0	5.008696e+01
358.368073	1.292885	city	8	1	0.923121	0.923121	0	1	0	0	CorrectCommission	1.432987	0.893757	0	0	5.104348e+01
359.660980	1.292930	city	10	1	0.929997	0.929997	0	1	0	0	CorrectCommission	1.393381	0.881047	0	0	52
360.953827	1.292746	city	7	1	1.261211	1.261211	0	1	0	0	CorrectCommission	0.514435	0.868652	0	0	5.295652e+01
362.253326	1.306254	city	5	1	0.994275	0.994275	0	1	0	0	CorrectCommission	1.023136	0.857570	0	0	5.391304e+01
363.566315	1.319734	city	10	1	1.008128	1.008128	0	1	0	0	CorrectCommission	0.943339	0.849126	0	0	5.486957e+01
364.885956	1.319545	city	1	1	1.013679	1.013679	0	1	0	0	CorrectCommission	0.911366	0.844657	0	0	5.582609e+01
366.185547	1.279608	city	5	1	1.094209	1.094209	0	1	0	0	CorrectCommission	0.447508	0.845106	0	0	5.678261e+01
367.491760	1.332828	city	4	1	1.214222	1.214222	0	1	0	0	CorrectCommission	0.243774	0.850722	0	0	5.773913e+01
368.824554	1.332771	city	10	1	1.065716	1.065716	0	1	0	0	CorrectCommission	0.611627	0.860848	0	0	5.869565e+01
370.130737	1.279606	mountain	3	0	0.000000	1.178726	1	0	0	0	CorrectOmission	0.039318	0.873821	0	0	5.965217e+01
371.416992	1.292878	city	6	1	1.241379	1.241379	0	1	0	0	CorrectCommission	0.400200	0.887220	0	0	6.060870e+01
372.703308	1.279764	city	10	1	0.941801	0.941801	0	1	0	0	CorrectCommission	1.325388	0.898150	0	0	6.156522e+01
373.982910	1.279483	city	9	1	0.707504	0.707504	0	1	0	0	CorrectCommission	2.674952	0.903731	0	0	6.252174e+01
375.295746	1.346166	city	7	1	1.246378	1.246378	0	1	0	0	CorrectCommission	0.429000	0.901557	0	0	6.347826e+01
376.608704	1.279733	city	5	1	0.858128	0.858128	0	1	0	0	CorrectCommission	1.807348	0.890223	0	0	6.443478e+01
377.908356	1.319574	city	10	1	0.824335	0.824335	0	1	0	0	CorrectCommission	2.002001	0.869461	0	0	6.539130e+01
379.221252	1.306204	city	1	1	1.154938	1.154938	0	1	0	0	CorrectCommission	0.097701	0.840248	0	0	6.634783e+01
380.514038	1.279418	city	2	1	1.315451	1.315451	0	1	0	0	CorrectCommission	0.826861	0.804715	0	0	6.730435e+01
381.813629	1.319769	city	5	1	1.044624	1.044624	0	1	0	0	CorrectCommission	0.733119	0.765712	0	0	6.826087e+01
383.126648	1.306223	city	2	1	1.105318	1.105318	0	1	0	0	CorrectCommission	0.383519	0.726478	1	0	6.921739e+01
384.432861	1.306213	city	1	1	1.213094	1.213094	0	1	0	0	CorrectCommission	0.237280	0.690177	1	0	7.017391e+01
385.732422	1.292920	city	4	1	1.247861	1.247861	0	1	0	0	CorrectCommission	0.437541	0.659538	1	0	7.113043e+01
387.032013	1.306244	city	2	1	1.286055	1.286055	0	1	0	0	CorrectCommission	0.657539	0.636552	1	0	7.208696e+01
388.338226	1.306217	city	9	1	1.215475	1.215475	0	1	0	0	CorrectCommission	0.250996	0.622306	1	0	7.304348e+01
392.250244	6.517787	break	0	0	0.000000	1.081852	0	0	0	0	ThoughtProbe	0.518686	0.617007	1	74	74
396.168976	1.319655	city	2	1	1.016596	1.016596	0	1	0	0	CorrectCommission	0.894561	0.619986	1	0	7.370000e+01
397.481842	1.306088	city	6	1	1.151122	1.151122	0	1	0	0	CorrectCommission	0.119682	0.629902	1	0	7.340000e+01
398.788055	1.306368	city	1	1	1.039891	1.039891	0	1	0	0	CorrectCommission	0.760384	0.644958	1	0	7.310000e+01
400.107697	1.332908	city	8	1	1.201167	1.201167	0	1	0	0	CorrectCommission	0.168581	0.663097	1	0	7.280000e+01
401.440613	1.332906	city	3	1	1.011691	1.011691	0	1	0	0	CorrectCommission	0.922818	0.682308	1	0	7.250000e+01
402.746857	1.279572	mountain	10	0	0.000000	1.283823	1	0	0	0	CorrectOmission	0.644683	0.700788	1	0	7.220000e+01
404.026367	1.279484	city	3	1	1.480027	1.480027	0	1	0	0	CorrectCommission	1.774830	0.717156	1	0	7.190000e+01
405.325928	1.319639	city	5	1	1.062764	1.062764	0	1	0	0	CorrectCommission	0.628634	0.730544	1	0	7.160000e+01
406.665527	1.359538	city	6	1	1.261147	1.261147	0	1	0	0	CorrectCommission	0.514070	0.740686	0	0	7.130000e+01
407.998413	1.306267	city	7	1	0.974467	0.974467	0	1	0	0	CorrectCommission	1.137227	0.747815	0	0	71
409.291290	1.279437	mountain	2	0	0.000000	1.101693	1	0	0	0	CorrectOmission	0.404395	0.752610	0	0	7.070000e+01
410.577515	1.293038	city	5	1	1.321837	1.321837	0	1	0	0	CorrectCommission	0.863649	0.756028	0	0	7.040000e+01
411.903748	1.359401	city	1	1	1.313910	1.313910	0	1	0	0	CorrectCommission	0.817989	0.759072	0	0	7.010000e+01
413.263214	1.359574	city	6	1	1.087545	1.087545	0	1	0	0	CorrectCommission	0.485892	0.762679	0	0	6.980000e+01
414.589447	1.292888	city	8	1	1.036416	1.036416	0	1	0	0	CorrectCommission	0.780396	0.767514	0	0	6.950000e+01
415.902344	1.332886	city	5	1	1.222974	1.222974	0	1	0	0	CorrectCommission	0.294186	0.773838	0	0	6.920000e+01
417.208649	1.279760	city	2	1	1.414199	1.414199	0	1	0	0	CorrectCommission	1.395658	0.781470	0	0	6.890000e+01
418.528320	1.359537	city	3	1	1.262262	1.262262	0	1	0	0	CorrectCommission	0.520489	0.789766	0	0	6.860000e+01
419.847870	1.279597	city	6	1	1.310859	1.310859	0	1	0	0	CorrectCommission	0.800414	0.797717	0	0	6.830000e+01
421.140747	1.306143	city	10	1	1.229628	1.229628	0	1	0	0	CorrectCommission	0.332515	0.804042	0	0	68
422.433655	1.279647	city	8	1	1.369203	1.369203	0	1	0	0	CorrectCommission	1.136479	0.807395	0	0	6.770000e+01
423.739929	1.332910	city	1	1	1.361120	1.361120	0	1	0	0	CorrectCommission	1.089920	0.806527	0	0	6.740000e+01
425.066559	1.320335	city	8	1	1.275815	1.275815	0	1	0	0	CorrectCommission	0.598558	0.800497	0	0	6.710000e+01
426.372803	1.292149	mountain	5	0	0.000000	1.391605	1	0	0	0	CorrectOmission	1.265514	0.788869	0	0	6.680000e+01
427.665161	1.292608	city	2	1	1.462545	1.462545	0	1	0	0	CorrectCommission	1.674134	0.771743	0	0	6.650000e+01
428.978058	1.333173	city	10	1	1.242692	1.242692	0	1	0	0	CorrectCommission	0.407767	0.749815	0	0	6.620000e+01
430.284424	1.279590	city	1	1	1.316992	1.316992	0	1	0	0	CorrectCommission	0.835738	0.724298	1	0	6.590000e+01
431.590668	1.332896	city	8	1	1.277710	1.277710	0	1	0	0	CorrectCommission	0.609469	0.696742	1	0	6.560000e+01
432.910248	1.306222	city	9	1	1.275288	1.275288	0	1	0	0	CorrectCommission	0.595519	0.668882	1	0	6.530000e+01
434.223145	1.319564	city	4	1	1.108664	1.108664	0	1	0	0	CorrectCommission	0.364247	0.642417	1	0	65
435.522705	1.279582	city	8	1	1.143299	1.143299	0	1	0	0	CorrectCommission	0.164745	0.618868	1	0	6.470000e+01
436.822296	1.319583	city	1	1	1.225289	1.225289	0	1	0	0	CorrectCommission	0.307522	0.599470	1	0	6.440000e+01
438.128540	1.292909	city	5	1	1.096081	1.096081	0	1	0	0	CorrectCommission	0.436721	0.585150	1	0	6.410000e+01
439.414764	1.279561	city	7	1	1.373067	1.373067	0	1	0	0	CorrectCommission	1.158735	0.576493	1	0	6.380000e+01
440.707672	1.306256	city	4	1	1.322795	1.322795	0	1	0	0	CorrectCommission	0.869167	0.573829	1	0	6.350000e+01
442.027252	1.332893	city	5	1	1.135553	1.135553	0	1	0	0	CorrectCommission	0.209365	0.577275	1	0	6.320000e+01
443.333466	1.279526	city	8	1	1.027137	1.027137	0	1	0	0	CorrectCommission	0.833844	0.586752	1	0	6.290000e+01
444.626282	1.306111	city	5	1	1.178645	1.178645	0	1	0	0	CorrectCommission	0.038848	0.601924	1	0	6.260000e+01
445.932556	1.306411	city	9	1	1.237997	1.237997	0	1	0	0	CorrectCommission	0.380723	0.622216	1	0	6.230000e+01
448.878235	4.584981	break	0	0	0.000000	1.119501	0	0	0	0	ThoughtProbe	0.301824	0.646748	1	62	62
451.810638	1.279796	city	3	1	1.031899	1.031899	0	1	0	0	CorrectCommission	0.806414	0.674356	1	0	6.252174e+01
453.130280	1.359511	city	2	1	1.183937	1.183937	0	1	0	0	CorrectCommission	0.069332	0.703624	1	0	6.304348e+01
454.456482	1.292892	mountain	8	1	0.978282	0.978282	0	0	1	0	CommissionError	1.115253	0.733019	0	0	6.356522e+01
455.749359	1.292876	city	8	1	1.426148	1.426148	0	1	0	0	CorrectCommission	1.464482	0.760936	0	0	6.408696e+01
457.048859	1.306134	mountain	3	0	0.000000	1.416334	1	0	0	0	CorrectOmission	1.407955	0.785920	0	0	6.460870e+01
458.361755	1.319627	city	6	1	1.254221	1.254221	0	1	0	0	CorrectCommission	0.474174	0.806721	0	0	6.513043e+01
459.688049	1.332991	city	1	1	1.245189	1.245189	0	1	0	0	CorrectCommission	0.422147	0.822398	0	0	6.565217e+01
460.994293	1.279476	city	7	1	1.453856	1.453856	0	1	0	0	CorrectCommission	1.624088	0.832335	0	0	6.617391e+01
462.307159	1.346268	city	5	1	1.219065	1.219065	0	1	0	0	CorrectCommission	0.271675	0.836229	0	0	6.669565e+01
463.633453	1.306299	city	7	1	1.213096	1.213096	0	1	0	0	CorrectCommission	0.237292	0.834168	0	0	6.721739e+01
464.926392	1.279554	mountain	8	0	0.000000	1.418087	1	0	0	0	CorrectOmission	1.418053	0.826504	0	0	6.773913e+01
466.205933	1.279579	city	6	1	1.523001	1.523001	0	1	0	0	CorrectCommission	2.022367	0.813872	0	0	6.826087e+01
467.532196	1.372925	city	9	1	1.216803	1.216803	0	1	0	0	CorrectCommission	0.258643	0.797216	0	0	6.878261e+01
468.885040	1.332775	city	3	1	1.007380	1.007380	0	1	0	0	CorrectCommission	0.947649	0.777742	0	0	6.930435e+01
470.191254	1.279659	city	8	1	1.088860	1.088860	0	1	0	0	CorrectCommission	0.478317	0.756765	0	0	6.982609e+01
471.477478	1.292744	city	9	1	1.383858	1.383858	0	1	0	0	CorrectCommission	1.220889	0.735704	0	0	7.034783e+01
472.776947	1.306236	city	10	1	1.163885	1.163885	0	1	0	0	CorrectCommission	0.046168	0.715948	1	0	7.086957e+01
474.096619	1.333076	city	6	1	1.276335	1.276335	0	1	0	0	CorrectCommission	0.601553	0.698817	1	0	7.139130e+01
475.416260	1.306236	city	2	1	1.242957	1.242957	0	1	0	0	CorrectCommission	0.409291	0.685391	1	0	7.191304e+01
476.722443	1.306110	city	10	1	1.062984	1.062984	0	1	0	0	CorrectCommission	0.627365	0.676588	1	0	7.243478e+01
478.048645	1.346330	city	9	1	1.098718	1.098718	0	1	0	0	CorrectCommission	0.421533	0.673099	1	0	7.295652e+01
479.368286	1.292926	city	2	1	0.930905	0.930905	0	1	0	0	CorrectCommission	1.388149	0.675419	1	0	7.347826e+01
480.661133	1.292739	city	3	1	1.253270	1.253270	0	1	0	0	CorrectCommission	0.468698	0.683826	1	0	74
481.947266	1.279581	city	8	1	0.995675	0.995675	0	1	0	0	CorrectCommission	1.015067	0.698416	1	0	7.452174e+01
483.246948	1.319735	city	1	1	1.194778	1.194778	0	1	0	0	CorrectCommission	0.131775	0.718985	1	0	7.504348e+01
484.586578	1.359557	city	3	1	1.211939	1.211939	0	1	0	0	CorrectCommission	0.230628	0.745005	0	0	7.556522e+01
485.926147	1.319566	city	10	1	1.143817	1.143817	0	1	0	0	CorrectCommission	0.161763	0.775542	0	0	7.608696e+01
487.225708	1.279580	city	2	0	0.000000	1.360733	0	0	0	1	OmissionError	1.087687	0.809257	0	0	7.660870e+01
488.505280	1.279555	city	9	1	1.501579	1.501579	0	1	0	0	CorrectCommission	1.898973	0.844377	0	0	7.713043e+01
489.824829	1.359553	city	4	1	1.205249	1.205249	0	1	0	0	CorrectCommission	0.192090	0.878785	0	0	7.765217e+01
491.157745	1.306233	city	9	1	1.106784	1.106784	0	1	0	0	CorrectCommission	0.375076	0.910184	0	0	7.817391e+01
492.457306	1.292909	city	2	1	1.504860	1.504860	0	1	0	0	CorrectCommission	1.917871	0.936170	0	0	7.869565e+01
493.756897	1.306265	city	9	1	1.369063	1.369063	0	1	0	0	CorrectCommission	1.135670	0.954358	0	0	7.921739e+01
495.069733	1.319403	city	5	1	1.225300	1.225300	0	1	0	0	CorrectCommission	0.307585	0.962606	0	0	7.973913e+01
496.369293	1.279719	mountain	1	0	0.000000	1.375951	1	0	0	0	CorrectOmission	1.175345	0.959168	0	0	8.026087e+01
497.655609	1.292924	city	10	1	1.556000	1.556000	0	1	0	0	CorrectCommission	2.212442	0.942675	0	0	8.078261e+01
498.961853	1.319547	city	3	1	1.500432	1.500432	0	1	0	0	CorrectCommission	1.892368	0.912264	0	0	8.130435e+01
500.274750	1.306263	city	4	1	1.219004	1.219004	0	1	0	0	CorrectCommission	0.271320	0.867590	0	0	8.182609e+01
501.587555	1.319375	city	8	1	1.005966	1.005966	0	1	0	0	CorrectCommission	0.955795	0.808822	0	0	8.234783e+01
502.893799	1.293077	city	7	1	1.093163	1.093163	0	1	0	0	CorrectCommission	0.453533	0.736476	0	0	8.286957e+01
504.206696	1.332728	city	9	1	1.192293	1.192293	0	1	0	0	CorrectCommission	0.117467	0.651459	1	0	8.339130e+01
505.519592	1.293042	city	10	1	0.979442	0.979442	0	1	0	0	CorrectCommission	1.108570	0.555048	1	0	8.391304e+01
506.812561	1.292936	city	4	1	1.048594	1.048594	0	1	0	0	CorrectCommission	0.710253	0.448866	1	0	8.443478e+01
508.105499	1.292898	city	2	1	1.446033	1.446033	0	1	0	0	CorrectCommission	1.579025	0.334891	1	0	8.495652e+01
509.438385	1.372895	city	1	1	1.251033	1.251033	0	1	0	0	CorrectCommission	0.455810	0.215462	1	0	8.547826e+01
512.843872	5.438117	break	0	0	1.155715	1.155715	0	0	0	0	ThoughtProbe	0.093229	0.093229	1	86	86
