onset	duration	trial_type	image_type	Press	ReactionTime	ReactionTime_Interpolated	CorrectOmission	CorrectCommission	CommissionError	OmissionError	response_type	nonsmoothVarianceTimeCourse	VarianceTimeCourse	In_the_Zone	ThoughtProbe	ThoughtProbe_Interpolated
0.652917	1.279455	city	9	1	0.805234	0.805234	0	1	0	0	CorrectCommission	1.594693	1.594693	0	0	26
1.932496	1.279703	city	10	1	1.078980	1.078980	0	1	0	0	CorrectCommission	0.268913	1.452362	0	0	26
3.218663	1.292631	city	3	1	1.161985	1.161985	0	1	0	0	CorrectCommission	0.133082	1.314491	0	0	26
4.504906	1.279855	city	5	1	1.138742	1.138742	0	1	0	0	CorrectCommission	0.020516	1.185135	0	0	26
5.784626	1.279584	mountain	5	0	0.000000	1.385676	1	0	0	0	CorrectOmission	1.216439	1.067678	0	0	26
7.064193	1.279550	city	3	1	1.497814	1.497814	0	1	0	0	CorrectCommission	1.759533	0.964572	0	0	26
8.343783	1.279630	city	6	1	1.070183	1.070183	0	1	0	0	CorrectCommission	0.311522	0.877300	0	0	26
9.623386	1.279576	city	2	1	0.967824	0.967824	0	1	0	0	CorrectCommission	0.807254	0.806409	0	0	26
10.902884	1.279419	city	10	1	0.985161	0.985161	0	1	0	0	CorrectCommission	0.723291	0.751525	0	0	26
12.182452	1.279718	city	7	1	1.071087	1.071087	0	1	0	0	CorrectCommission	0.307140	0.711508	0	0	26
13.462113	1.279603	city	5	1	1.070755	1.070755	0	1	0	0	CorrectCommission	0.308750	0.684599	0	0	26
14.741692	1.279554	city	2	1	1.122888	1.122888	0	1	0	0	CorrectCommission	0.056266	0.668561	1	0	26
16.021177	1.279419	city	9	1	1.027251	1.027251	0	1	0	0	CorrectCommission	0.519443	0.660892	1	0	26
17.300688	1.279601	city	4	1	1.073773	1.073773	0	1	0	0	CorrectCommission	0.294132	0.659013	1	0	26
18.580374	1.279772	mountain	9	0	0.000000	1.339723	1	0	0	0	CorrectOmission	0.993887	0.660543	1	0	26
19.860035	1.279549	city	7	1	1.412056	1.412056	0	1	0	0	CorrectCommission	1.344202	0.663502	1	0	26
21.139585	1.279553	city	6	1	0.877728	0.877728	0	1	0	0	CorrectCommission	1.243597	0.666487	1	0	26
22.419163	1.279603	city	5	1	1.020534	1.020534	0	1	0	0	CorrectCommission	0.551974	0.668791	1	0	26
23.698740	1.279548	city	8	1	0.930891	0.930891	0	1	0	0	CorrectCommission	0.986124	0.670358	1	0	26
24.984913	1.292800	city	4	1	1.022331	1.022331	0	1	0	0	CorrectCommission	0.543271	0.671593	1	0	26
26.271162	1.279696	city	9	1	1.035596	1.035596	0	1	0	0	CorrectCommission	0.479026	0.673260	1	0	26
27.557415	1.292811	city	4	1	1.139308	1.139308	0	1	0	0	CorrectCommission	0.023258	0.676221	1	0	26
28.843603	1.279567	city	7	1	1.142897	1.142897	0	1	0	0	CorrectCommission	0.040639	0.681230	0	0	26
30.123243	1.279714	city	5	1	0.968003	0.968003	0	1	0	0	CorrectCommission	0.806387	0.688878	0	0	26
31.402878	1.279555	city	2	1	0.908558	0.908558	0	1	0	0	CorrectCommission	1.094285	0.699557	0	0	26
32.682442	1.279575	city	7	1	1.337547	1.337547	0	1	0	0	CorrectCommission	0.983346	0.713553	0	0	26
33.961952	1.279446	city	10	1	1.018507	1.018507	0	1	0	0	CorrectCommission	0.561791	0.731125	0	0	26
35.241455	1.279560	city	9	1	0.914411	0.914411	0	1	0	0	CorrectCommission	1.065937	0.752630	0	0	26
36.521103	1.279732	city	10	1	0.963995	0.963995	0	1	0	0	CorrectCommission	0.825797	0.778484	0	0	26
37.800758	1.279577	mountain	6	0	0.000000	1.198133	1	0	0	0	CorrectOmission	0.308154	0.809141	0	0	26
39.100292	1.319495	city	4	1	1.291109	1.291109	0	1	0	0	CorrectCommission	0.758444	0.844913	0	0	26
40.406521	1.292962	city	6	1	0.917206	0.917206	0	1	0	0	CorrectCommission	1.052400	0.885764	0	0	26
41.692802	1.279598	city	3	1	0.968447	0.968447	0	1	0	0	CorrectCommission	0.804234	0.931084	0	0	26
42.972408	1.279612	city	5	1	1.246258	1.246258	0	1	0	0	CorrectCommission	0.541226	0.979541	0	0	26
44.251999	1.279574	city	9	1	1.288184	1.288184	0	1	0	0	CorrectCommission	0.744278	1.028987	0	0	26
45.531506	1.279440	city	1	1	1.296155	1.296155	0	1	0	0	CorrectCommission	0.782880	1.076540	0	0	26
46.817657	1.292858	city	10	1	1.307523	1.307523	0	1	0	0	CorrectCommission	0.837936	1.118811	0	0	26
48.103958	1.279742	city	7	1	1.396403	1.396403	0	1	0	0	CorrectCommission	1.268392	1.152317	0	0	26
49.383526	1.279398	city	5	1	1.355364	1.355364	0	1	0	0	CorrectCommission	1.069637	1.173940	0	0	26
50.023224	11.809595	break	0	0	0.000000	1.762484	0	0	0	0	ThoughtProbe	3.041352	1.181414	0	26	26
62.472561	1.279482	city	7	1	1.949467	1.949467	0	1	0	0	CorrectCommission	3.946930	1.173633	0	0	2.658824e+01
63.758820	1.293032	city	1	1	1.248021	1.248021	0	1	0	0	CorrectCommission	0.549763	1.150861	0	0	2.717647e+01
65.045067	1.279469	city	6	1	1.069655	1.069655	0	1	0	0	CorrectCommission	0.314076	1.114761	0	0	2.776471e+01
66.324570	1.279531	mountain	1	0	0.000000	1.003855	1	0	0	0	CorrectOmission	0.632752	1.067993	0	0	2.835294e+01
67.604202	1.279742	city	7	1	1.017057	1.017057	0	1	0	0	CorrectCommission	0.568816	1.013868	0	0	2.894118e+01
68.883865	1.279582	city	10	1	1.075696	1.075696	0	1	0	0	CorrectCommission	0.284821	0.955905	0	0	2.952941e+01
70.163445	1.279574	city	7	1	1.605026	1.605026	0	1	0	0	CorrectCommission	2.278773	0.897417	0	0	3.011765e+01
71.449684	1.292910	city	8	1	0.994484	0.994484	0	1	0	0	CorrectCommission	0.678139	0.841125	0	0	3.070588e+01
72.742599	1.292908	city	5	1	1.000287	1.000287	0	1	0	0	CorrectCommission	0.650033	0.789068	0	0	3.129412e+01
74.075424	1.372742	city	2	1	1.091470	1.091470	0	1	0	0	CorrectCommission	0.208428	0.742390	0	0	3.188235e+01
75.408257	1.292933	city	9	1	1.051421	1.051421	0	1	0	0	CorrectCommission	0.402386	0.701415	0	0	3.247059e+01
76.694504	1.279559	city	5	1	1.070424	1.070424	0	1	0	0	CorrectCommission	0.310353	0.665747	1	0	3.305882e+01
77.974129	1.279681	city	2	1	1.230966	1.230966	0	1	0	0	CorrectCommission	0.467165	0.634444	1	0	3.364706e+01
79.253777	1.279616	mountain	8	0	0.000000	1.355707	1	0	0	0	CorrectOmission	1.071296	0.606254	1	0	3.423529e+01
80.533379	1.279599	city	1	1	1.340478	1.340478	0	1	0	0	CorrectCommission	0.997544	0.579839	1	0	3.482353e+01
81.812927	1.279495	city	8	1	1.081113	1.081113	0	1	0	0	CorrectCommission	0.258586	0.554032	1	0	3.541176e+01
83.092491	1.279639	city	9	1	0.984981	0.984981	0	1	0	0	CorrectCommission	0.724163	0.528018	1	0	36
84.372040	1.279456	city	10	1	0.972237	0.972237	0	1	0	0	CorrectCommission	0.785879	0.501439	1	0	3.658824e+01
85.651581	1.279619	city	3	1	1.134158	1.134158	0	1	0	0	CorrectCommission	0.001683	0.474446	1	0	3.717647e+01
86.931145	1.279515	city	5	1	1.337537	1.337537	0	1	0	0	CorrectCommission	0.983297	0.447687	1	0	3.776471e+01
88.210770	1.279738	city	4	1	1.135259	1.135259	0	1	0	0	CorrectCommission	0.003648	0.422184	1	0	3.835294e+01
89.497093	1.292900	city	9	1	1.038569	1.038569	0	1	0	0	CorrectCommission	0.464630	0.399247	1	0	3.894118e+01
90.783302	1.279519	city	4	1	1.023286	1.023286	0	1	0	0	CorrectCommission	0.538644	0.380225	1	0	3.952941e+01
92.062881	1.279640	city	6	1	1.144370	1.144370	0	1	0	0	CorrectCommission	0.047774	0.366465	1	0	4.011765e+01
93.369156	1.332910	city	2	1	1.143071	1.143071	0	1	0	0	CorrectCommission	0.041485	0.359102	1	0	4.070588e+01
94.675362	1.279505	city	7	1	1.078312	1.078312	0	1	0	0	CorrectCommission	0.272153	0.358901	1	0	4.129412e+01
95.954933	1.279637	city	4	1	1.195138	1.195138	0	1	0	0	CorrectCommission	0.293648	0.366197	1	0	4.188235e+01
97.241249	1.292999	city	9	1	1.076805	1.076805	0	1	0	0	CorrectCommission	0.279450	0.380859	1	0	4.247059e+01
98.527504	1.279507	city	2	1	1.125032	1.125032	0	1	0	0	CorrectCommission	0.045881	0.402261	1	0	4.305882e+01
99.813644	1.292767	city	6	1	1.148044	1.148044	0	1	0	0	CorrectCommission	0.065567	0.429417	1	0	4.364706e+01
101.099892	1.279728	city	10	1	1.238832	1.238832	0	1	0	0	CorrectCommission	0.505263	0.461045	1	0	4.423529e+01
102.386177	1.292850	city	8	1	1.231513	1.231513	0	1	0	0	CorrectCommission	0.469815	0.495706	1	0	4.482353e+01
103.672417	1.279632	city	1	1	1.405190	1.405190	0	1	0	0	CorrectCommission	1.310947	0.531916	1	0	4.541176e+01
104.312233	10.476480	break	0	0	0.000000	1.331316	0	0	0	0	ThoughtProbe	0.953169	0.568216	1	46	46
115.428543	1.279649	city	8	0	0.000000	1.183129	0	0	0	1	OmissionError	0.235487	0.603264	1	0	4.667391e+01
116.714729	1.292729	mountain	9	1	1.133866	1.133866	0	0	1	0	CommissionError	0.003096	0.635818	1	0	4.734783e+01
118.000961	1.279740	city	7	1	1.356766	1.356766	0	1	0	0	CorrectCommission	1.076427	0.664718	1	0	4.802174e+01
119.280586	1.279515	city	3	1	1.042220	1.042220	0	1	0	0	CorrectCommission	0.446946	0.688884	0	0	4.869565e+01
120.560181	1.279663	city	1	1	0.978588	0.978588	0	1	0	0	CorrectCommission	0.755123	0.707364	0	0	4.936957e+01
121.839790	1.279558	city	5	1	0.914316	0.914316	0	1	0	0	CorrectCommission	1.066396	0.719320	0	0	5.004348e+01
123.119370	1.279599	city	6	1	0.825116	0.825116	0	1	0	0	CorrectCommission	1.498402	0.724139	0	0	5.071739e+01
124.405609	1.292880	city	9	1	1.037545	1.037545	0	1	0	0	CorrectCommission	0.469591	0.721458	0	0	5.139130e+01
125.698479	1.292867	city	7	1	1.249179	1.249179	0	1	0	0	CorrectCommission	0.555372	0.711309	0	0	5.206522e+01
126.984726	1.279627	city	1	1	0.934978	0.934978	0	1	0	0	CorrectCommission	0.966329	0.694100	0	0	5.273913e+01
128.264252	1.279435	city	2	1	0.989218	0.989218	0	1	0	0	CorrectCommission	0.703638	0.670610	1	0	5.341304e+01
129.543839	1.279722	city	3	1	0.869733	0.869733	0	1	0	0	CorrectCommission	1.282317	0.642005	1	0	5.408696e+01
130.823471	1.279536	city	2	1	1.289284	1.289284	0	1	0	0	CorrectCommission	0.749603	0.609714	1	0	5.476087e+01
132.116379	1.306283	city	7	1	1.110340	1.110340	0	1	0	0	CorrectCommission	0.117035	0.575358	1	0	5.543478e+01
133.409317	1.279605	city	9	1	1.087208	1.087208	0	1	0	0	CorrectCommission	0.229068	0.540629	1	0	5.610870e+01
134.688904	1.279551	mountain	6	0	0.000000	1.200198	1	0	0	0	CorrectOmission	0.318153	0.507169	1	0	5.678261e+01
135.968475	1.279616	city	4	1	1.249392	1.249392	0	1	0	0	CorrectCommission	0.556406	0.476453	1	0	5.745652e+01
137.248062	1.279538	city	1	1	1.034873	1.034873	0	1	0	0	CorrectCommission	0.482530	0.449784	1	0	5.813043e+01
138.527618	1.279587	city	6	1	1.076457	1.076457	0	1	0	0	CorrectCommission	0.281136	0.428233	1	0	5.880435e+01
139.813690	1.292566	city	3	1	1.001698	1.001698	0	1	0	0	CorrectCommission	0.643200	0.412627	1	0	5.947826e+01
141.099930	1.279915	mountain	2	0	0.000000	1.064566	1	0	0	0	CorrectOmission	0.338726	0.403534	1	0	6.015217e+01
142.386353	1.292914	city	1	1	1.140608	1.140608	0	1	0	0	CorrectCommission	0.029553	0.401298	1	0	6.082609e+01
143.679245	1.292882	city	2	1	1.105371	1.105371	0	1	0	0	CorrectCommission	0.141100	0.406020	1	0	6.150000e+01
144.965439	1.279491	city	9	1	1.071046	1.071046	0	1	0	0	CorrectCommission	0.307338	0.417546	1	0	6.217391e+01
146.251694	1.293014	city	3	1	1.082504	1.082504	0	1	0	0	CorrectCommission	0.251848	0.435407	1	0	6.284783e+01
147.537994	1.279594	city	9	1	1.040679	1.040679	0	1	0	0	CorrectCommission	0.454412	0.458891	1	0	6.352174e+01
148.817627	1.279679	city	1	1	1.084878	1.084878	0	1	0	0	CorrectCommission	0.240350	0.487003	1	0	6.419565e+01
150.097198	1.279446	city	8	1	1.248959	1.248959	0	1	0	0	CorrectCommission	0.554308	0.518520	1	0	6.486957e+01
151.376678	1.279531	city	9	1	1.439729	1.439729	0	1	0	0	CorrectCommission	1.478222	0.551995	1	0	6.554348e+01
152.669601	1.306310	city	8	1	1.169536	1.169536	0	1	0	0	CorrectCommission	0.169657	0.585836	1	0	6.621739e+01
153.962540	1.279565	city	1	1	1.070963	1.070963	0	1	0	0	CorrectCommission	0.307742	0.618407	1	0	6.689130e+01
155.255371	1.306114	city	9	1	1.038183	1.038183	0	1	0	0	CorrectCommission	0.466500	0.648039	1	0	6.756522e+01
156.548309	1.279753	city	4	1	1.091178	1.091178	0	1	0	0	CorrectCommission	0.209841	0.673200	1	0	6.823913e+01
157.827835	1.279299	mountain	3	0	0.000000	1.379610	1	0	0	0	CorrectOmission	1.187062	0.692636	0	0	6.891304e+01
159.107407	1.279842	city	4	1	1.518433	1.518433	0	1	0	0	CorrectCommission	1.859394	0.705496	0	0	6.958696e+01
160.400391	1.306138	city	1	1	1.122600	1.122600	0	1	0	0	CorrectCommission	0.057659	0.711481	0	0	7.026087e+01
161.693298	1.279656	city	5	1	0.824341	0.824341	0	1	0	0	CorrectCommission	1.502156	0.710914	0	0	7.093478e+01
162.972916	1.279596	city	10	1	0.823699	0.823699	0	1	0	0	CorrectCommission	1.505263	0.704591	0	0	7.160870e+01
164.252518	1.279586	city	4	1	1.194731	1.194731	0	1	0	0	CorrectCommission	0.291675	0.693738	0	0	7.228261e+01
165.545410	1.306209	city	3	1	1.091365	1.091365	0	1	0	0	CorrectCommission	0.208932	0.679793	0	0	7.295652e+01
166.838318	1.279602	city	9	1	1.176812	1.176812	0	1	0	0	CorrectCommission	0.204896	0.664127	1	0	7.363043e+01
168.117889	1.279561	city	2	1	1.206764	1.206764	0	1	0	0	CorrectCommission	0.349955	0.647837	1	0	7.430435e+01
169.397415	1.279479	city	7	1	1.385082	1.385082	0	1	0	0	CorrectCommission	1.213565	0.631611	1	0	7.497826e+01
170.690323	1.306329	city	8	1	1.116359	1.116359	0	1	0	0	CorrectCommission	0.087886	0.615719	1	0	7.565217e+01
171.983276	1.279593	city	10	1	0.972743	0.972743	0	1	0	0	CorrectCommission	0.783431	0.600117	1	0	7.632609e+01
172.623077	11.236251	break	0	1	1.032519	1.032519	0	0	0	0	ThoughtProbe	0.493931	0.584574	1	77	77
184.505753	1.292839	city	3	1	0.994977	0.994977	0	1	0	0	CorrectCommission	0.675751	0.568925	1	0	7.547059e+01
185.798676	1.293022	city	1	1	0.994227	0.994227	0	1	0	0	CorrectCommission	0.679382	0.553241	1	0	7.394118e+01
187.098297	1.306231	city	5	1	0.940195	0.940195	0	1	0	0	CorrectCommission	0.941064	0.537992	1	0	7.241176e+01
188.397827	1.292801	city	6	1	1.387970	1.387970	0	1	0	0	CorrectCommission	1.227549	0.524014	1	0	7.088235e+01
189.690659	1.292886	city	1	1	1.202648	1.202648	0	1	0	0	CorrectCommission	0.330019	0.512411	1	0	6.935294e+01
190.976959	1.279712	city	3	1	1.132554	1.132554	0	1	0	0	CorrectCommission	0.009451	0.504398	1	0	6.782353e+01
192.256607	1.279584	mountain	9	0	0.000000	1.130791	1	0	0	0	CorrectOmission	0.017990	0.500963	1	0	6.629412e+01
193.536179	1.279566	city	9	1	1.124159	1.124159	0	1	0	0	CorrectCommission	0.050107	0.502614	1	0	6.476471e+01
194.822418	1.292908	city	8	1	1.039460	1.039460	0	1	0	0	CorrectCommission	0.460315	0.509200	1	0	6.323529e+01
196.108673	1.279585	city	1	1	1.127791	1.127791	0	1	0	0	CorrectCommission	0.032522	0.519830	1	0	6.170588e+01
197.388260	1.279598	city	6	1	1.144528	1.144528	0	1	0	0	CorrectCommission	0.048541	0.532986	1	0	6.017647e+01
198.667847	1.279560	city	5	1	1.289553	1.289553	0	1	0	0	CorrectCommission	0.750910	0.546783	1	0	5.864706e+01
199.947418	1.279582	city	8	1	1.418343	1.418343	0	1	0	0	CorrectCommission	1.374651	0.559245	1	0	5.711765e+01
201.233673	1.292929	mountain	3	0	0.000000	1.445070	1	0	0	0	CorrectOmission	1.504091	0.568650	1	0	5.558824e+01
202.519836	1.279412	city	7	1	1.356410	1.356410	0	1	0	0	CorrectCommission	1.074704	0.573817	1	0	5.405882e+01
203.799423	1.279751	city	9	1	1.139041	1.139041	0	1	0	0	CorrectCommission	0.021967	0.574269	1	0	5.252941e+01
205.079071	1.279566	city	6	1	0.984325	0.984325	0	1	0	0	CorrectCommission	0.727336	0.570240	1	0	51
206.365311	1.292897	city	2	1	1.139020	1.139020	0	1	0	0	CorrectCommission	0.021864	0.562530	1	0	4.947059e+01
207.651459	1.279412	city	10	1	1.283982	1.283982	0	1	0	0	CorrectCommission	0.723926	0.552370	1	0	4.794118e+01
208.930984	1.279632	city	1	1	1.200690	1.200690	0	1	0	0	CorrectCommission	0.320534	0.541186	1	0	4.641176e+01
210.217331	1.293048	city	10	1	1.191810	1.191810	0	1	0	0	CorrectCommission	0.277529	0.530415	1	0	4.488235e+01
211.503632	1.279552	city	4	1	1.387573	1.387573	0	1	0	0	CorrectCommission	1.225626	0.521307	1	0	4.335294e+01
212.823181	1.359561	city	8	1	1.168204	1.168204	0	1	0	0	CorrectCommission	0.163202	0.514837	1	0	4.182353e+01
214.149414	1.292902	city	1	1	1.088941	1.088941	0	1	0	0	CorrectCommission	0.220672	0.511702	1	0	4.029412e+01
215.442245	1.292757	city	9	1	1.255459	1.255459	0	1	0	0	CorrectCommission	0.585787	0.512242	1	0	3.876471e+01
216.748474	1.319720	city	2	1	1.033776	1.033776	0	1	0	0	CorrectCommission	0.487840	0.516497	1	0	3.723529e+01
218.061386	1.306081	city	10	1	0.996457	0.996457	0	1	0	0	CorrectCommission	0.668581	0.524308	1	0	3.570588e+01
219.354233	1.279617	city	7	1	1.236445	1.236445	0	1	0	0	CorrectCommission	0.493700	0.535346	1	0	3.417647e+01
220.640564	1.293043	city	9	1	1.111892	1.111892	0	1	0	0	CorrectCommission	0.109521	0.549222	1	0	3.264706e+01
221.946854	1.319546	city	3	1	1.107813	1.107813	0	1	0	0	CorrectCommission	0.129274	0.565595	1	0	3.111765e+01
223.266342	1.319434	city	4	1	1.039913	1.039913	0	1	0	0	CorrectCommission	0.458120	0.584304	1	0	2.958824e+01
224.572586	1.293037	city	8	1	0.818833	0.818833	0	1	0	0	CorrectCommission	1.528828	0.605488	1	0	2.805882e+01
225.878891	1.319570	city	2	1	0.900448	0.900448	0	1	0	0	CorrectCommission	1.133559	0.629607	1	0	2.652941e+01
226.538666	10.383099	break	0	0	0.000000	1.117098	0	0	0	0	ThoughtProbe	0.084306	0.657481	1	25	25
237.561600	1.279653	city	4	1	1.300723	1.300723	0	1	0	0	CorrectCommission	0.805006	0.690167	0	0	2.480000e+01
238.854492	1.306151	city	1	1	1.283265	1.283265	0	1	0	0	CorrectCommission	0.720453	0.728696	0	0	2.460000e+01
240.147369	1.279591	mountain	9	0	0.000000	1.181807	1	0	0	0	CorrectOmission	0.229083	0.773856	0	0	2.440000e+01
241.433670	1.293014	city	9	1	1.060476	1.060476	0	1	0	0	CorrectCommission	0.358531	0.825885	0	0	2.420000e+01
242.719940	1.279523	city	7	1	0.983401	0.983401	0	1	0	0	CorrectCommission	0.731812	0.884181	0	0	24
244.019485	1.319570	city	5	1	0.878502	0.878502	0	1	0	0	CorrectCommission	1.239846	0.947160	0	0	2.380000e+01
245.319107	1.279673	city	7	1	1.205265	1.205265	0	1	0	0	CorrectCommission	0.342691	1.012176	0	0	2.360000e+01
246.612061	1.306241	city	9	1	0.919479	0.919479	0	1	0	0	CorrectCommission	1.041394	1.075758	0	0	2.340000e+01
247.904907	1.279461	city	10	1	0.858408	0.858408	0	1	0	0	CorrectCommission	1.337166	1.133856	0	0	2.320000e+01
249.191147	1.293006	city	9	1	1.007351	1.007351	0	1	0	0	CorrectCommission	0.615822	1.182361	0	0	23
250.477448	1.279595	city	5	1	0.874909	0.874909	0	1	0	0	CorrectCommission	1.257249	1.217672	0	0	2.280000e+01
251.756973	1.279450	city	7	1	1.744314	1.744314	0	1	0	0	CorrectCommission	2.953354	1.237215	0	0	2.260000e+01
253.049835	1.306286	city	9	1	1.769061	1.769061	0	1	0	0	CorrectCommission	3.073207	1.239846	0	0	2.240000e+01
254.342819	1.279663	mountain	4	0	0.000000	1.560060	1	0	0	0	CorrectOmission	2.060998	1.226128	0	0	2.220000e+01
255.622437	1.279596	city	3	1	1.242382	1.242382	0	1	0	0	CorrectCommission	0.522457	1.198254	0	0	22
256.908600	1.292737	city	8	1	0.941099	0.941099	0	1	0	0	CorrectCommission	0.936686	1.159720	0	0	2.180000e+01
258.208099	1.306257	city	6	1	0.879562	0.879562	0	1	0	0	CorrectCommission	1.234713	1.114750	0	0	2.160000e+01
259.507751	1.293036	city	4	1	1.091929	1.091929	0	1	0	0	CorrectCommission	0.206204	1.067697	0	0	2.140000e+01
260.794067	1.279579	city	8	1	1.039725	1.039725	0	1	0	0	CorrectCommission	0.459031	1.022445	0	0	2.120000e+01
262.073639	1.279602	city	10	1	0.915641	0.915641	0	1	0	0	CorrectCommission	1.059982	0.981845	0	0	21
263.359894	1.292886	city	5	1	0.978096	0.978096	0	1	0	0	CorrectCommission	0.757506	0.947518	0	0	2.080000e+01
264.646179	1.279693	city	9	1	1.234496	1.234496	0	1	0	0	CorrectCommission	0.484262	0.919848	0	0	2.060000e+01
265.925751	1.279427	city	5	1	1.150640	1.150640	0	1	0	0	CorrectCommission	0.078139	0.898111	0	0	2.040000e+01
267.205200	1.279490	mountain	5	0	0.000000	1.416665	1	0	0	0	CorrectOmission	1.366521	0.880942	0	0	2.020000e+01
268.484802	1.279710	city	4	1	1.529685	1.529685	0	1	0	0	CorrectCommission	1.913889	0.866801	0	0	20
269.777771	1.306237	city	10	1	0.986815	0.986815	0	1	0	0	CorrectCommission	0.715276	0.854507	0	0	1.980000e+01
271.077301	1.292817	city	8	1	0.882312	0.882312	0	1	0	0	CorrectCommission	1.221393	0.843633	0	0	1.960000e+01
272.363495	1.279571	city	6	1	0.997544	0.997544	0	1	0	0	CorrectCommission	0.663319	0.834655	0	0	1.940000e+01
273.663055	1.319518	city	1	1	0.803597	0.803597	0	1	0	0	CorrectCommission	1.602620	0.829089	0	0	1.920000e+01
274.982666	1.319726	city	10	1	1.132023	1.132023	0	1	0	0	CorrectCommission	0.012025	0.829217	0	0	19
276.288879	1.292697	city	5	1	1.268293	1.268293	0	1	0	0	CorrectCommission	0.647943	0.837771	0	0	1.880000e+01
277.588440	1.306431	city	4	1	1.220082	1.220082	0	1	0	0	CorrectCommission	0.414451	0.857402	0	0	1.860000e+01
278.894714	1.306111	city	2	1	1.007181	1.007181	0	1	0	0	CorrectCommission	0.616646	0.890198	0	0	1.840000e+01
280.194214	1.292913	city	8	1	1.004358	1.004358	0	1	0	0	CorrectCommission	0.630316	0.937177	0	0	1.820000e+01
281.500519	1.319696	city	5	1	1.027730	1.027730	0	1	0	0	CorrectCommission	0.517126	0.997966	0	0	18
282.800171	1.279568	city	9	1	1.250030	1.250030	0	1	0	0	CorrectCommission	0.559494	1.070618	0	0	1.780000e+01
284.086395	1.292915	city	1	1	0.985726	0.985726	0	1	0	0	CorrectCommission	0.720554	1.151700	0	0	1.760000e+01
285.379333	1.292929	city	3	1	0.946268	0.946268	0	1	0	0	CorrectCommission	0.911653	1.236531	0	0	1.740000e+01
286.665497	1.279407	city	1	1	1.296333	1.296333	0	1	0	0	CorrectCommission	0.783744	1.319671	0	0	1.720000e+01
287.305206	15.954757	break	0	0	0.000000	1.716079	0	0	0	0	ThoughtProbe	2.816609	1.395566	0	17	17
303.899811	1.279721	city	6	1	1.835444	1.835444	0	1	0	0	CorrectCommission	3.394707	1.459098	0	0	17
305.179474	1.279626	city	10	1	1.284370	1.284370	0	1	0	0	CorrectCommission	0.725806	1.506247	0	0	17
306.459076	1.279531	city	2	1	1.369504	1.369504	0	1	0	0	CorrectCommission	1.138115	1.534560	0	0	17
307.751953	1.306236	mountain	2	0	0.000000	1.650864	1	0	0	0	CorrectOmission	2.500769	1.543265	0	0	17
309.044861	1.279590	city	2	1	1.840935	1.840935	0	1	0	0	CorrectCommission	3.421298	1.533254	0	0	17
310.344452	1.319570	city	3	1	1.652198	1.652198	0	1	0	0	CorrectCommission	2.507229	1.506826	0	0	17
311.670593	1.332766	city	1	1	1.196408	1.196408	0	1	0	0	CorrectCommission	0.299801	1.467204	0	0	17
312.990173	1.306373	city	7	1	0.987045	0.987045	0	1	0	0	CorrectCommission	0.714167	1.418000	0	0	17
314.296387	1.306050	city	3	1	0.824433	0.824433	0	1	0	0	CorrectCommission	1.501711	1.362527	0	0	17
315.602631	1.306425	city	7	1	1.160730	1.160730	0	1	0	0	CorrectCommission	0.127004	1.303439	0	0	17
316.915558	1.319462	city	1	1	1.020622	1.020622	0	1	0	0	CorrectCommission	0.551548	1.242504	0	0	17
318.235046	1.319508	city	10	1	0.911820	0.911820	0	1	0	0	CorrectCommission	1.078486	1.180588	0	0	17
319.541351	1.293065	city	2	1	0.703264	0.703264	0	1	0	0	CorrectCommission	2.088540	1.117875	0	0	17
320.834320	1.292889	city	4	1	0.614798	0.614798	0	1	0	0	CorrectCommission	2.516989	1.054228	0	0	17
322.120544	1.279574	city	2	1	0.888846	0.888846	0	1	0	0	CorrectCommission	1.189749	0.989585	0	0	17
323.406708	1.292768	city	8	1	0.925872	0.925872	0	1	0	0	CorrectCommission	1.010429	0.924307	0	0	17
324.706238	1.306267	city	7	1	1.091639	1.091639	0	1	0	0	CorrectCommission	0.207608	0.859253	0	0	17
326.005890	1.293042	city	4	1	1.092300	1.092300	0	1	0	0	CorrectCommission	0.204404	0.795839	0	0	17
327.292114	1.279425	city	1	1	0.923901	0.923901	0	1	0	0	CorrectCommission	1.019978	0.735879	0	0	17
328.578369	1.293069	city	7	1	1.219833	1.219833	0	1	0	0	CorrectCommission	0.413246	0.681362	0	0	17
329.864990	1.280180	city	2	1	1.034772	1.034772	0	1	0	0	CorrectCommission	0.483019	0.634252	1	0	17
331.164520	1.318862	city	5	1	1.106649	1.106649	0	1	0	0	CorrectCommission	0.134914	0.596198	1	0	17
332.463715	1.279558	city	4	1	0.967622	0.967622	0	1	0	0	CorrectCommission	0.808233	0.568382	1	0	17
333.743347	1.279699	mountain	1	0	0.000000	1.135451	1	0	0	0	CorrectOmission	0.004577	0.551432	1	0	17
335.022980	1.279562	city	6	1	1.304417	1.304417	0	1	0	0	CorrectCommission	0.822897	0.545357	1	0	17
336.309235	1.292908	city	5	1	1.168803	1.168803	0	1	0	0	CorrectCommission	0.166103	0.549466	1	0	17
337.602142	1.292904	city	2	1	1.201738	1.201738	0	1	0	0	CorrectCommission	0.325611	0.562469	1	0	17
338.901703	1.306234	city	1	1	1.047857	1.047857	0	1	0	0	CorrectCommission	0.419645	0.582507	1	0	17
340.194611	1.279581	city	4	1	1.018320	1.018320	0	1	0	0	CorrectCommission	0.562699	0.607296	1	0	17
341.480865	1.292919	city	9	1	1.000983	1.000983	0	1	0	0	CorrectCommission	0.646661	0.634241	1	0	17
342.780334	1.306069	city	7	1	1.007730	1.007730	0	1	0	0	CorrectCommission	0.613985	0.660601	1	0	17
344.079926	1.293085	city	6	1	0.995134	0.995134	0	1	0	0	CorrectCommission	0.674991	0.683741	0	0	17
345.366272	1.279587	city	5	1	0.979130	0.979130	0	1	0	0	CorrectCommission	0.752496	0.701327	0	0	17
346.006042	14.621826	break	0	0	0.000000	1.322978	0	0	0	0	ThoughtProbe	0.912787	0.711535	0	17	17
361.267670	1.279602	city	6	1	1.572589	1.572589	0	1	0	0	CorrectCommission	2.121678	0.713215	0	0	1.743478e+01
362.567230	1.319504	city	4	1	1.273879	1.273879	0	1	0	0	CorrectCommission	0.674998	0.705962	0	0	1.786957e+01
363.866730	1.279495	mountain	7	0	0.000000	1.216457	1	0	0	0	CorrectOmission	0.396897	0.690227	0	0	1.830435e+01
365.153015	1.293056	mountain	6	1	1.279242	1.279242	0	0	1	0	CommissionError	0.700970	0.667132	1	0	1.873913e+01
366.445923	1.292739	city	8	1	1.341153	1.341153	0	1	0	0	CorrectCommission	1.000810	0.638318	1	0	1.917391e+01
367.758789	1.333035	city	1	1	1.236531	1.236531	0	1	0	0	CorrectCommission	0.494116	0.605743	1	0	1.960870e+01
369.065094	1.279562	city	10	1	1.033214	1.033214	0	1	0	0	CorrectCommission	0.490564	0.571451	1	0	2.004348e+01
370.351349	1.292959	city	7	1	1.144787	1.144787	0	1	0	0	CorrectCommission	0.049794	0.537350	1	0	2.047826e+01
371.650879	1.306093	city	10	1	1.223753	1.223753	0	1	0	0	CorrectCommission	0.432231	0.505053	1	0	2.091304e+01
372.950439	1.293023	city	8	1	1.027767	1.027767	0	1	0	0	CorrectCommission	0.516947	0.475787	1	0	2.134783e+01
374.250000	1.306074	city	4	1	1.060572	1.060572	0	1	0	0	CorrectCommission	0.358068	0.450361	1	0	2.178261e+01
375.549561	1.293071	city	2	1	1.031155	1.031155	0	1	0	0	CorrectCommission	0.500537	0.429262	1	0	2.221739e+01
376.855896	1.319595	city	1	1	1.035790	1.035790	0	1	0	0	CorrectCommission	0.478089	0.412649	1	0	2.265217e+01
378.168732	1.306071	city	7	1	1.158260	1.158260	0	1	0	0	CorrectCommission	0.115042	0.400514	1	0	2.308696e+01
379.461548	1.279587	city	6	1	1.236330	1.236330	0	1	0	0	CorrectCommission	0.493145	0.392783	1	0	2.352174e+01
380.761200	1.319690	city	7	1	1.173889	1.173889	0	1	0	0	CorrectCommission	0.190737	0.389353	1	0	2.395652e+01
382.060822	1.279584	city	1	1	1.074432	1.074432	0	1	0	0	CorrectCommission	0.290941	0.390189	1	0	2.439130e+01
383.347015	1.292807	city	7	1	1.247299	1.247299	0	1	0	0	CorrectCommission	0.546269	0.395365	1	0	2.482609e+01
384.639893	1.292924	city	10	1	1.039323	1.039323	0	1	0	0	CorrectCommission	0.460976	0.405058	1	0	2.526087e+01
385.926208	1.279688	city	3	1	1.070874	1.070874	0	1	0	0	CorrectCommission	0.308174	0.419545	1	0	2.569565e+01
387.205811	1.279556	mountain	10	0	0.000000	1.152545	1	0	0	0	CorrectOmission	0.087368	0.439152	1	0	2.613043e+01
388.485413	1.279605	mountain	1	0	0.000000	1.231322	1	0	0	0	CorrectOmission	0.468888	0.464192	1	0	2.656522e+01
389.778320	1.306211	city	3	1	1.254187	1.254187	0	1	0	0	CorrectCommission	0.579625	0.494798	1	0	27
391.084442	1.306077	city	5	1	1.168124	1.168124	0	1	0	0	CorrectCommission	0.162817	0.530892	1	0	2.743478e+01
392.390686	1.306396	city	4	1	1.060791	1.060791	0	1	0	0	CorrectCommission	0.357005	0.572074	1	0	2.786957e+01
393.703674	1.319592	city	5	1	0.909240	0.909240	0	1	0	0	CorrectCommission	1.090980	0.617480	1	0	2.830435e+01
395.029907	1.332870	city	3	1	0.952794	0.952794	0	1	0	0	CorrectCommission	0.880047	0.665746	1	0	2.873913e+01
396.336151	1.279587	city	2	1	1.099780	1.099780	0	1	0	0	CorrectCommission	0.168178	0.715046	0	0	2.917391e+01
397.622406	1.292923	city	1	1	1.206917	1.206917	0	1	0	0	CorrectCommission	0.350695	0.763143	0	0	2.960870e+01
398.915314	1.292911	city	6	1	1.152780	1.152780	0	1	0	0	CorrectCommission	0.088506	0.807531	0	0	3.004348e+01
400.208160	1.292778	city	1	1	1.501131	1.501131	0	1	0	0	CorrectCommission	1.775599	0.845703	0	0	3.047826e+01
401.521057	1.333013	city	10	0	0.000000	1.290326	0	0	0	1	OmissionError	0.754649	0.875404	0	0	3.091304e+01
402.853943	1.332751	city	8	1	0.867359	0.867359	0	1	0	0	CorrectCommission	1.293813	0.895039	0	0	3.134783e+01
404.173492	1.306371	city	10	1	0.579228	0.579228	0	1	0	0	CorrectCommission	2.689256	0.903776	0	0	3.178261e+01
405.493042	1.332750	city	8	1	0.791811	0.791811	0	1	0	0	CorrectCommission	1.659698	0.901731	0	0	3.221739e+01
406.819275	1.319708	city	9	1	1.052335	1.052335	0	1	0	0	CorrectCommission	0.397959	0.889985	0	0	3.265217e+01
408.132202	1.306101	city	1	1	1.001819	1.001819	0	1	0	0	CorrectCommission	0.642611	0.870363	0	0	3.308696e+01
409.438416	1.306375	city	8	1	1.104142	1.104142	0	1	0	0	CorrectCommission	0.147054	0.845148	0	0	3.352174e+01
410.744720	1.306237	city	7	1	1.162477	1.162477	0	1	0	0	CorrectCommission	0.135467	0.816815	0	0	3.395652e+01
412.044312	1.292902	city	1	1	0.987604	0.987604	0	1	0	0	CorrectCommission	0.711459	0.787717	0	0	3.439130e+01
413.330505	1.279512	city	7	1	1.475271	1.475271	0	1	0	0	CorrectCommission	1.650355	0.759884	0	0	3.482609e+01
414.636749	1.332988	city	2	1	1.288589	1.288589	0	1	0	0	CorrectCommission	0.746239	0.734901	0	0	3.526087e+01
415.956360	1.306239	city	4	1	1.052206	1.052206	0	1	0	0	CorrectCommission	0.398584	0.713903	0	0	3.569565e+01
417.255951	1.292885	city	1	1	1.377894	1.377894	0	1	0	0	CorrectCommission	1.178749	0.697518	0	0	3.613043e+01
418.608826	1.412891	city	7	1	1.174141	1.174141	0	1	0	0	CorrectCommission	0.191959	0.685868	0	0	3.656522e+01
419.315277	11.809305	break	0	0	0.000000	1.051678	0	0	0	0	ThoughtProbe	0.401141	0.678681	0	37	37
431.771088	1.293026	mountain	1	0	0.000000	1.004367	1	0	0	0	CorrectOmission	0.630273	0.675259	1	0	3.652500e+01
433.084045	1.332915	city	10	1	1.026070	1.026070	0	1	0	0	CorrectCommission	0.525164	0.674574	1	0	3.605000e+01
434.403625	1.306237	city	4	1	1.110650	1.110650	0	1	0	0	CorrectCommission	0.115537	0.675391	1	0	3.557500e+01
435.729858	1.346217	city	6	1	1.009426	1.009426	0	1	0	0	CorrectCommission	0.605771	0.676418	1	0	3.510000e+01
437.042725	1.279497	mountain	8	0	0.000000	1.345038	1	0	0	0	CorrectOmission	1.019626	0.676444	1	0	3.462500e+01
438.322296	1.279645	city	4	1	1.574810	1.574810	0	1	0	0	CorrectCommission	2.132433	0.674530	1	0	3.415000e+01
439.621887	1.319566	city	2	1	1.156068	1.156068	0	1	0	0	CorrectCommission	0.104430	0.670098	1	0	3.367500e+01
440.941467	1.319565	city	5	1	0.949449	0.949449	0	1	0	0	CorrectCommission	0.896245	0.663038	1	0	3.320000e+01
442.280945	1.359411	city	4	1	1.282596	1.282596	0	1	0	0	CorrectCommission	0.717214	0.653593	1	0	3.272500e+01
443.620453	1.319572	city	10	1	1.059799	1.059799	0	1	0	0	CorrectCommission	0.361810	0.642287	1	0	3.225000e+01
444.933441	1.306401	city	6	1	1.034771	1.034771	0	1	0	0	CorrectCommission	0.483023	0.629823	1	0	3.177500e+01
446.233002	1.292733	city	5	1	1.250071	1.250071	0	1	0	0	CorrectCommission	0.559695	0.616909	1	0	3.130000e+01
447.525909	1.293071	city	6	1	1.181544	1.181544	0	1	0	0	CorrectCommission	0.227810	0.604175	1	0	3.082500e+01
448.812225	1.279563	city	10	1	1.035515	1.035515	0	1	0	0	CorrectCommission	0.479419	0.592123	1	0	3.035000e+01
450.111694	1.319418	city	6	1	1.266555	1.266555	0	1	0	0	CorrectCommission	0.639526	0.581143	1	0	2.987500e+01
451.411285	1.279730	city	1	1	1.338517	1.338517	0	1	0	0	CorrectCommission	0.988044	0.571563	1	0	2.940000e+01
452.697601	1.292931	city	2	1	1.349737	1.349737	0	1	0	0	CorrectCommission	1.042384	0.563700	1	0	2.892500e+01
453.990509	1.292884	city	7	1	1.205075	1.205075	0	1	0	0	CorrectCommission	0.341775	0.557919	1	0	2.845000e+01
455.283356	1.292820	city	5	1	1.231812	1.231812	0	1	0	0	CorrectCommission	0.471261	0.554625	1	0	2.797500e+01
456.576202	1.292862	city	3	1	1.192509	1.192509	0	1	0	0	CorrectCommission	0.280916	0.554129	1	0	2.750000e+01
457.895844	1.346381	city	8	1	1.028145	1.028145	0	1	0	0	CorrectCommission	0.515114	0.556598	1	0	2.702500e+01
459.208801	1.279573	city	2	1	1.023084	1.023084	0	1	0	0	CorrectCommission	0.539624	0.561932	1	0	2.655000e+01
460.501709	1.306216	city	1	1	1.149555	1.149555	0	1	0	0	CorrectCommission	0.072886	0.569656	1	0	2.607500e+01
461.794617	1.279582	mountain	8	0	0.000000	1.069265	1	0	0	0	CorrectOmission	0.315965	0.578956	1	0	2.560000e+01
463.080841	1.292920	city	5	1	1.105448	1.105448	0	1	0	0	CorrectCommission	0.140728	0.588741	1	0	2.512500e+01
464.373749	1.292898	city	3	1	1.581337	1.581337	0	1	0	0	CorrectCommission	2.164044	0.597821	1	0	2.465000e+01
465.693298	1.346190	city	6	1	1.126664	1.126664	0	1	0	0	CorrectCommission	0.037976	0.605070	1	0	2.417500e+01
467.006165	1.279547	city	7	1	0.993249	0.993249	0	1	0	0	CorrectCommission	0.684117	0.609719	1	0	2.370000e+01
468.299103	1.306319	city	8	1	0.997407	0.997407	0	1	0	0	CorrectCommission	0.663982	0.611467	1	0	2.322500e+01
469.625366	1.346200	city	1	1	0.904049	0.904049	0	1	0	0	CorrectCommission	1.116123	0.610573	1	0	2.275000e+01
470.964844	1.332764	city	6	1	1.021102	1.021102	0	1	0	0	CorrectCommission	0.549225	0.607817	1	0	2.227500e+01
472.291016	1.319565	city	1	1	0.892850	0.892850	0	1	0	0	CorrectCommission	1.170361	0.604396	1	0	2.180000e+01
473.597321	1.293075	city	8	1	1.071095	1.071095	0	1	0	0	CorrectCommission	0.307103	0.601626	1	0	2.132500e+01
474.910217	1.332715	city	4	1	1.035598	1.035598	0	1	0	0	CorrectCommission	0.479020	0.600723	1	0	2.085000e+01
476.249786	1.346396	city	2	1	1.127450	1.127450	0	1	0	0	CorrectCommission	0.034171	0.602481	1	0	2.037500e+01
477.576050	1.306108	city	7	1	1.156515	1.156515	0	1	0	0	CorrectCommission	0.106595	0.607115	1	0	1.990000e+01
478.868866	1.279537	city	2	1	1.133206	1.133206	0	1	0	0	CorrectCommission	0.006297	0.614201	1	0	1.942500e+01
480.168488	1.319713	city	8	1	1.009920	1.009920	0	1	0	0	CorrectCommission	0.603380	0.622810	1	0	1.895000e+01
481.468079	1.279507	city	6	1	0.995244	0.995244	0	1	0	0	CorrectCommission	0.674455	0.631738	1	0	1.847500e+01
482.107849	10.889681	break	0	0	0.000000	1.365375	0	0	0	0	ThoughtProbe	1.118120	0.639908	1	18	18
493.657379	1.319730	city	4	1	1.627274	1.627274	0	1	0	0	CorrectCommission	2.386522	0.646656	1	0	1.954348e+01
494.977142	1.319748	city	1	1	1.287905	1.287905	0	1	0	0	CorrectCommission	0.742925	0.651996	1	0	2.108696e+01
496.316681	1.359374	city	8	1	1.083911	1.083911	0	1	0	0	CorrectCommission	0.245035	0.656764	1	0	2.263043e+01
497.636169	1.279570	mountain	9	0	0.000000	1.122211	1	0	0	0	CorrectOmission	0.059543	0.662427	1	0	2.417391e+01
498.922333	1.292748	city	9	1	1.252029	1.252029	0	1	0	0	CorrectCommission	0.569174	0.670890	1	0	2.571739e+01
500.208557	1.279738	city	8	1	1.322586	1.322586	0	1	0	0	CorrectCommission	0.910890	0.684086	0	0	2.726087e+01
501.514801	1.332738	city	7	1	1.163038	1.163038	0	1	0	0	CorrectCommission	0.138186	0.703633	0	0	2.880435e+01
502.840942	1.319551	city	1	1	1.218012	1.218012	0	1	0	0	CorrectCommission	0.404431	0.730448	0	0	3.034783e+01
504.147186	1.292912	city	8	1	1.034845	1.034845	0	1	0	0	CorrectCommission	0.482665	0.764541	0	0	3.189130e+01
505.433502	1.279733	city	6	1	1.087619	1.087619	0	1	0	0	CorrectCommission	0.227074	0.804916	0	0	3.343478e+01
506.719818	1.292883	city	10	1	0.984650	0.984650	0	1	0	0	CorrectCommission	0.725764	0.849670	0	0	3.497826e+01
508.006042	1.279603	city	4	1	1.308566	1.308566	0	1	0	0	CorrectCommission	0.842991	0.896183	0	0	3.652174e+01
509.312286	1.332895	mountain	9	0	0.000000	1.461589	1	0	0	0	CorrectOmission	1.584092	0.941454	0	0	3.806522e+01
510.618469	1.279437	city	1	1	1.487322	1.487322	0	1	0	0	CorrectCommission	1.708721	0.982424	0	0	3.960870e+01
511.918030	1.319713	mountain	7	0	0.000000	1.429371	1	0	0	0	CorrectOmission	1.428060	1.016381	0	0	4.115217e+01
513.224304	1.292769	city	10	1	1.367324	1.367324	0	1	0	0	CorrectCommission	1.127559	1.041145	0	0	4.269565e+01
514.510437	1.279575	city	7	1	1.380767	1.380767	0	1	0	0	CorrectCommission	1.192666	1.055317	0	0	4.423913e+01
515.843445	1.386349	city	6	1	1.065765	1.065765	0	1	0	0	CorrectCommission	0.332916	1.058362	0	0	4.578261e+01
517.182983	1.292774	city	5	1	0.863506	0.863506	0	1	0	0	CorrectCommission	1.312476	1.050691	0	0	4.732609e+01
518.475891	1.293021	city	10	1	1.338179	1.338179	0	1	0	0	CorrectCommission	0.986409	1.033587	0	0	4.886957e+01
519.788818	1.332918	city	2	1	1.531647	1.531647	0	1	0	0	CorrectCommission	1.923388	1.009219	0	0	5.041304e+01
521.108398	1.306235	city	7	1	1.546573	1.546573	0	1	0	0	CorrectCommission	1.995679	0.980472	0	0	5.195652e+01
522.441223	1.359407	city	6	1	1.035924	1.035924	0	1	0	0	CorrectCommission	0.477438	0.950748	0	0	5.350000e+01
523.774170	1.306404	city	5	1	0.948774	0.948774	0	1	0	0	CorrectCommission	0.899513	0.923777	0	0	5.504348e+01
525.067139	1.279565	city	8	1	1.072331	1.072331	0	1	0	0	CorrectCommission	0.301118	0.903158	0	0	5.658696e+01
526.346680	1.279572	city	1	1	1.016732	1.016732	0	1	0	0	CorrectCommission	0.570388	0.892048	0	0	5.813043e+01
527.626282	1.279580	mountain	3	0	0.000000	1.038387	1	0	0	0	CorrectOmission	0.465509	0.892763	0	0	5.967391e+01
528.919189	1.306253	city	10	1	1.102752	1.102752	0	1	0	0	CorrectCommission	0.153785	0.906533	0	0	6.121739e+01
530.218689	1.292736	city	5	1	1.175282	1.175282	0	1	0	0	CorrectCommission	0.197481	0.933394	0	0	6.276087e+01
531.511536	1.292974	city	4	1	0.939583	0.939583	0	1	0	0	CorrectCommission	0.944027	0.972208	0	0	6.430435e+01
532.824524	1.333037	city	6	1	0.845424	0.845424	0	1	0	0	CorrectCommission	1.400048	1.020878	0	0	6.584783e+01
534.157471	1.332845	city	4	1	0.989049	0.989049	0	1	0	0	CorrectCommission	0.704457	1.076676	0	0	6.739130e+01
535.490295	1.332821	city	3	1	0.895874	0.895874	0	1	0	0	CorrectCommission	1.155712	1.136673	0	0	6.893478e+01
536.809814	1.306177	city	1	1	1.729830	1.729830	0	1	0	0	CorrectCommission	2.883209	1.198080	0	0	7.047826e+01
538.142761	1.359686	city	3	1	1.274755	1.274755	0	1	0	0	CorrectCommission	0.679237	1.258569	0	0	7.202174e+01
539.475708	1.306235	city	9	1	0.946597	0.946597	0	1	0	0	CorrectCommission	0.910059	1.316597	0	0	7.356522e+01
540.775269	1.292894	city	6	1	0.858314	0.858314	0	1	0	0	CorrectCommission	1.337620	1.371384	0	0	7.510870e+01
542.094788	1.346100	city	2	1	0.792043	0.792043	0	1	0	0	CorrectCommission	1.658576	1.422932	0	0	7.665217e+01
543.427673	1.319724	city	4	1	0.759891	0.759891	0	1	0	0	CorrectCommission	1.814291	1.471831	0	0	7.819565e+01
544.734009	1.292889	city	3	1	0.760413	0.760413	0	1	0	0	CorrectCommission	1.811762	1.519130	0	0	7.973913e+01
546.033569	1.306237	city	5	1	0.756066	0.756066	0	1	0	0	CorrectCommission	1.832817	1.566011	0	0	8.128261e+01
547.359802	1.346248	city	9	1	0.970024	0.970024	0	1	0	0	CorrectCommission	0.796597	1.613544	0	0	8.282609e+01
548.679321	1.292766	city	5	1	0.855419	0.855419	0	1	0	0	CorrectCommission	1.351642	1.662485	0	0	8.436957e+01
549.978882	1.306352	city	4	1	0.833038	0.833038	0	1	0	0	CorrectCommission	1.460035	1.713104	0	0	8.591304e+01
551.311707	1.359390	city	1	1	0.796065	0.796065	0	1	0	0	CorrectCommission	1.639095	1.765203	0	0	8.745652e+01
551.991455	10.636609	break	0	0	0.000000	0.759093	0	0	0	0	ThoughtProbe	1.818155	1.818155	0	89	89
