onset	duration	trial_type	image_type	Press	ReactionTime	ReactionTime_Interpolated	CorrectOmission	CorrectCommission	CommissionError	OmissionError	response_type	nonsmoothVarianceTimeCourse	VarianceTimeCourse	In_the_Zone	ThoughtProbe	ThoughtProbe_Interpolated
0.653171	1.279533	city	10	1	0.974517	0.974517	0	1	0	0	CorrectCommission	0.117455	0.117455	1	0	37
1.932702	1.279528	mountain	2	0	0.000000	1.157221	1	0	0	0	CorrectOmission	0.336159	0.234292	1	0	37
3.365477	1.586022	city	3	1	1.215157	1.215157	0	1	0	0	CorrectCommission	0.480002	0.350781	1	0	37
4.798363	1.279750	city	4	1	1.023558	1.023558	0	1	0	0	CorrectCommission	0.004303	0.466234	1	0	37
6.077940	1.279405	city	2	1	1.014744	1.014744	0	1	0	0	CorrectCommission	0.017579	0.579378	1	0	37
7.384168	1.333050	city	5	1	0.856933	0.856933	0	1	0	0	CorrectCommission	0.409391	0.688266	1	0	37
8.690447	1.279509	city	6	1	0.752148	0.752148	0	1	0	0	CorrectCommission	0.669551	0.790396	1	0	37
9.983356	1.306310	city	8	1	0.673466	0.673466	0	1	0	0	CorrectCommission	0.864900	0.883034	0	0	37
11.276298	1.279572	city	5	1	1.741177	1.741177	0	1	0	0	CorrectCommission	1.786000	0.963649	0	0	37
12.562510	1.292852	city	4	1	1.775765	1.775765	0	1	0	0	CorrectCommission	1.871876	1.030338	0	0	37
13.848764	1.279657	city	1	1	1.906836	1.906836	0	1	0	0	CorrectCommission	2.197297	1.082235	0	0	37
15.128386	1.279586	city	6	1	1.924118	1.924118	0	1	0	0	CorrectCommission	2.240205	1.119674	0	0	37
16.407919	1.279482	city	4	0	0.000000	1.589639	0	0	0	1	OmissionError	1.409762	1.144109	0	0	37
17.687431	1.279543	mountain	7	0	0.000000	1.126227	1	0	0	0	CorrectOmission	0.259209	1.157842	0	0	37
18.966976	1.279546	city	1	1	0.756714	0.756714	0	1	0	0	CorrectCommission	0.658213	1.163556	0	0	37
20.246611	1.279722	city	7	1	0.703930	0.703930	0	1	0	0	CorrectCommission	0.789265	1.163755	0	0	37
21.526194	1.279442	city	2	1	0.677237	0.677237	0	1	0	0	CorrectCommission	0.855538	1.160392	0	0	37
22.805780	1.279731	city	5	1	0.695147	0.695147	0	1	0	0	CorrectCommission	0.811071	1.154583	0	0	37
24.085367	1.279444	city	8	1	0.543376	0.543376	0	1	0	0	CorrectCommission	1.187888	1.146572	0	0	37
25.364859	1.279540	city	3	1	0.591488	0.591488	0	1	0	0	CorrectCommission	1.068436	1.135882	0	0	37
26.644497	1.279736	city	4	1	1.657877	1.657877	0	1	0	0	CorrectCommission	1.579183	1.121666	0	0	37
27.924156	1.279580	city	7	1	1.836350	1.836350	0	1	0	0	CorrectCommission	2.022294	1.103074	0	0	37
29.203655	1.279420	city	2	1	1.899353	1.899353	0	1	0	0	CorrectCommission	2.178719	1.079596	0	0	37
30.483236	1.279740	city	4	0	0.000000	1.334784	0	0	0	1	OmissionError	0.777011	1.051314	0	0	37
31.762903	1.279597	city	6	1	0.768862	0.768862	0	1	0	0	CorrectCommission	0.628053	1.019011	0	0	37
33.042568	1.279731	city	9	1	0.827811	0.827811	0	1	0	0	CorrectCommission	0.481696	0.984066	0	0	37
34.328728	1.292589	city	6	1	0.742746	0.742746	0	1	0	0	CorrectCommission	0.692893	0.948348	0	0	37
35.614895	1.279745	city	9	1	0.605998	0.605998	0	1	0	0	CorrectCommission	1.032409	0.913986	0	0	37
36.894554	1.279576	city	5	1	0.650353	0.650353	0	1	0	0	CorrectCommission	0.922287	0.883147	0	0	37
38.174076	1.279464	city	4	1	0.749522	0.749522	0	1	0	0	CorrectCommission	0.676071	0.857876	0	0	37
39.453644	1.279677	city	8	1	0.697187	0.697187	0	1	0	0	CorrectCommission	0.806006	0.839899	0	0	37
40.733273	1.279580	city	5	1	0.703655	0.703655	0	1	0	0	CorrectCommission	0.789949	0.830481	0	0	37
42.012856	1.279584	city	8	1	0.647957	0.647957	0	1	0	0	CorrectCommission	0.928235	0.830301	0	0	37
42.652649	9.210151	break	0	1	0.716178	0.716178	0	0	0	0	ThoughtProbe	0.758856	0.839329	0	37	37
52.502663	1.279730	city	3	1	0.965054	0.965054	0	1	0	0	CorrectCommission	0.140949	0.856739	0	0	3.747826e+01
53.782288	1.279516	city	2	1	0.774063	0.774063	0	1	0	0	CorrectCommission	0.615141	0.880901	0	0	3.795652e+01
55.061794	1.279502	city	7	1	0.774711	0.774711	0	1	0	0	CorrectCommission	0.613532	0.909370	0	0	3.843478e+01
56.341434	1.279778	city	2	1	0.663087	0.663087	0	1	0	0	CorrectCommission	0.890669	0.939095	0	0	3.891304e+01
57.627682	1.292715	city	4	1	0.725614	0.725614	0	1	0	0	CorrectCommission	0.735428	0.966703	0	0	3.939130e+01
58.913876	1.279674	city	9	1	0.649714	0.649714	0	1	0	0	CorrectCommission	0.923872	0.988894	0	0	3.986957e+01
60.193531	1.279636	city	4	1	1.716408	1.716408	0	1	0	0	CorrectCommission	1.724504	1.002878	0	0	4.034783e+01
61.473160	1.279624	city	3	1	1.779173	1.779173	0	1	0	0	CorrectCommission	1.880336	1.006806	0	0	4.082609e+01
62.752743	1.279540	city	7	1	1.870252	1.870252	0	1	0	0	CorrectCommission	2.106466	1.000107	0	0	4.130435e+01
64.032295	1.279564	city	3	1	1.713837	1.713837	0	1	0	0	CorrectCommission	1.718122	0.983617	0	0	4.178261e+01
65.311844	1.279538	mountain	2	0	0.000000	1.209008	1	0	0	0	CorrectOmission	0.464736	0.959516	0	0	4.226087e+01
66.591354	1.279482	city	6	1	0.757099	0.757099	0	1	0	0	CorrectCommission	0.657258	0.931098	0	0	4.273913e+01
67.870872	1.279549	city	3	1	0.759446	0.759446	0	1	0	0	CorrectCommission	0.651432	0.902297	0	0	4.321739e+01
69.150513	1.279728	city	1	1	0.983894	0.983894	0	1	0	0	CorrectCommission	0.094173	0.877212	0	0	4.369565e+01
70.430161	1.279580	mountain	5	0	0.000000	0.845166	1	0	0	0	CorrectOmission	0.438607	0.859610	0	0	4.417391e+01
71.709747	1.279586	city	3	1	0.661370	0.661370	0	1	0	0	CorrectCommission	0.894932	0.852448	0	0	4.465217e+01
72.989334	1.279581	city	10	1	0.750619	0.750619	0	1	0	0	CorrectCommission	0.673346	0.857572	0	0	4.513043e+01
74.268906	1.279576	mountain	4	1	0.703718	0.703718	0	0	1	0	CommissionError	0.789791	0.875522	0	0	4.560870e+01
75.548492	1.279585	city	9	1	0.718243	0.718243	0	1	0	0	CorrectCommission	0.753730	0.905444	0	0	4.608696e+01
76.834740	1.292923	city	1	1	0.825162	0.825162	0	1	0	0	CorrectCommission	0.488273	0.945139	0	0	4.656522e+01
78.120911	1.279419	city	6	1	0.706663	0.706663	0	1	0	0	CorrectCommission	0.782480	0.991226	0	0	4.704348e+01
79.413811	1.306379	city	2	1	0.673233	0.673233	0	1	0	0	CorrectCommission	0.865479	1.039403	0	0	4.752174e+01
80.726784	1.319559	city	10	1	0.601092	0.601092	0	1	0	0	CorrectCommission	1.044590	1.084821	0	0	48
82.026352	1.279582	mountain	5	0	0.000000	0.394975	1	0	0	0	CorrectOmission	1.556336	1.122519	0	0	4.847826e+01
83.305946	1.279608	city	2	1	0.557543	0.557543	0	1	0	0	CorrectCommission	1.152713	1.147921	0	0	4.895652e+01
84.592117	1.292725	city	7	1	1.591458	1.591458	0	1	0	0	CorrectCommission	1.414280	1.157365	0	0	4.943478e+01
85.891678	1.306402	city	3	1	1.821290	1.821290	0	1	0	0	CorrectCommission	1.984903	1.148523	0	0	4.991304e+01
87.191330	1.292899	city	10	1	2.001019	2.001019	0	1	0	0	CorrectCommission	2.431133	1.120719	0	0	5.039130e+01
88.477570	1.279579	city	7	1	1.977269	1.977269	0	1	0	0	CorrectCommission	2.372168	1.075031	0	0	5.086957e+01
89.757149	1.279582	city	3	0	0.000000	1.463994	0	0	0	1	OmissionError	1.097814	1.014189	0	0	5.134783e+01
91.036728	1.279583	city	6	1	0.925046	0.925046	0	1	0	0	CorrectCommission	0.240282	0.942238	0	0	5.182609e+01
92.322960	1.292871	city	7	1	0.824276	0.824276	0	1	0	0	CorrectCommission	0.490471	0.864003	0	0	5.230435e+01
93.609200	1.279609	city	3	1	0.812953	0.812953	0	1	0	0	CorrectCommission	0.518584	0.784494	1	0	5.278261e+01
94.888794	1.279582	city	7	1	0.872162	0.872162	0	1	0	0	CorrectCommission	0.371582	0.708320	1	0	5.326087e+01
96.168381	1.279588	city	9	1	0.937409	0.937409	0	1	0	0	CorrectCommission	0.209586	0.639195	1	0	5.373913e+01
97.447937	1.279538	city	4	1	0.868657	0.868657	0	1	0	0	CorrectCommission	0.380282	0.579642	1	0	5.421739e+01
98.727448	1.279471	city	3	1	1.071046	1.071046	0	1	0	0	CorrectCommission	0.122206	0.530858	1	0	5.469565e+01
100.020287	1.306206	city	4	1	1.210909	1.210909	0	1	0	0	CorrectCommission	0.469457	0.492821	1	0	5.517391e+01
101.313225	1.279674	city	2	1	1.085914	1.085914	0	1	0	0	CorrectCommission	0.159121	0.464542	1	0	5.565217e+01
102.592888	1.279657	city	10	1	1.081317	1.081317	0	1	0	0	CorrectCommission	0.147706	0.444443	1	0	5.613043e+01
103.872475	1.279519	city	7	1	1.347921	1.347921	0	1	0	0	CorrectCommission	0.809628	0.430752	1	0	5.660870e+01
105.152054	1.279632	city	6	1	1.352508	1.352508	0	1	0	0	CorrectCommission	0.821018	0.421879	1	0	5.708696e+01
106.431610	1.279484	city	10	1	1.341892	1.341892	0	1	0	0	CorrectCommission	0.794661	0.416701	1	0	5.756522e+01
107.711174	1.279644	city	3	1	1.185776	1.185776	0	1	0	0	CorrectCommission	0.407056	0.414703	1	0	5.804348e+01
108.990768	1.279545	city	2	1	1.083261	1.083261	0	1	0	0	CorrectCommission	0.152532	0.415960	1	0	5.852174e+01
113.555939	7.850788	break	0	0	0.000000	0.982420	0	0	0	0	ThoughtProbe	0.097833	0.420978	1	59	59
118.127800	1.292943	city	7	1	0.886247	0.886247	0	1	0	0	CorrectCommission	0.336610	0.430456	1	0	5.961765e+01
119.427361	1.306172	city	2	1	0.797733	0.797733	0	1	0	0	CorrectCommission	0.556372	0.444997	1	0	6.023529e+01
120.726936	1.292990	city	3	1	0.881913	0.881913	0	1	0	0	CorrectCommission	0.347372	0.464840	1	0	6.085294e+01
122.026466	1.306064	city	9	1	0.994990	0.994990	0	1	0	0	CorrectCommission	0.066625	0.489670	1	0	6.147059e+01
123.326042	1.293080	city	4	1	1.001935	1.001935	0	1	0	0	CorrectCommission	0.049383	0.518534	1	0	6.208824e+01
124.612366	1.279577	mountain	6	0	0.000000	0.890199	1	0	0	0	CorrectOmission	0.326799	0.549904	1	0	6.270588e+01
125.891937	1.279562	city	3	1	0.761012	0.761012	0	1	0	0	CorrectCommission	0.647543	0.581815	1	0	6.332353e+01
127.171448	1.279464	city	8	1	0.715604	0.715604	0	1	0	0	CorrectCommission	0.760281	0.612132	1	0	6.394118e+01
128.464340	1.306330	city	10	1	0.572481	0.572481	0	1	0	0	CorrectCommission	1.115626	0.638853	1	0	6.455882e+01
129.757324	1.279628	mountain	3	0	0.000000	0.528587	1	0	0	0	CorrectOmission	1.224605	0.660390	1	0	6.517647e+01
131.036865	1.279457	city	5	1	0.537732	0.537732	0	1	0	0	CorrectCommission	1.201901	0.675788	1	0	6.579412e+01
132.329773	1.306347	city	8	1	0.553724	0.553724	0	1	0	0	CorrectCommission	1.162196	0.684798	1	0	6.641176e+01
133.622726	1.279578	city	10	1	0.910774	0.910774	0	1	0	0	CorrectCommission	0.275717	0.687848	1	0	6.702941e+01
134.902252	1.279445	city	4	1	0.974921	0.974921	0	1	0	0	CorrectCommission	0.116453	0.685892	1	0	6.764706e+01
136.188492	1.293045	city	6	1	1.190948	1.190948	0	1	0	0	CorrectCommission	0.419897	0.680191	1	0	6.826471e+01
137.474716	1.279394	city	9	1	1.284214	1.284214	0	1	0	0	CorrectCommission	0.651457	0.672051	1	0	6.888235e+01
138.754288	1.279750	city	8	1	1.456099	1.456099	0	1	0	0	CorrectCommission	1.078212	0.662639	1	0	6.950000e+01
140.033875	1.279441	city	9	1	1.407600	1.407600	0	1	0	0	CorrectCommission	0.957800	0.652795	1	0	7.011765e+01
141.320129	1.293058	city	4	1	1.311867	1.311867	0	1	0	0	CorrectCommission	0.720114	0.642984	1	0	7.073529e+01
142.606445	1.279580	city	6	1	1.181011	1.181011	0	1	0	0	CorrectCommission	0.395225	0.633234	1	0	7.135294e+01
143.886017	1.279567	city	9	1	0.911815	0.911815	0	1	0	0	CorrectCommission	0.273132	0.623196	1	0	7.197059e+01
145.165512	1.279422	city	6	1	0.911722	0.911722	0	1	0	0	CorrectCommission	0.273362	0.612249	1	0	7.258824e+01
146.451767	1.293071	city	4	1	0.894226	0.894226	0	1	0	0	CorrectCommission	0.316800	0.599666	1	0	7.320588e+01
147.751419	1.306243	city	3	1	0.727514	0.727514	0	1	0	0	CorrectCommission	0.730712	0.584821	1	0	7.382353e+01
149.044312	1.279559	city	8	1	1.671498	1.671498	0	1	0	0	CorrectCommission	1.613002	0.567394	1	0	7.444118e+01
150.330551	1.292899	city	1	1	1.423104	1.423104	0	1	0	0	CorrectCommission	0.996293	0.547533	1	0	7.505882e+01
151.616791	1.279587	city	4	1	1.307150	1.307150	0	1	0	0	CorrectCommission	0.708403	0.525940	1	0	7.567647e+01
152.903046	1.292914	city	1	1	1.146634	1.146634	0	1	0	0	CorrectCommission	0.309874	0.503829	1	0	7.629412e+01
154.189240	1.279479	city	8	1	1.086452	1.086452	0	1	0	0	CorrectCommission	0.160455	0.482807	1	0	7.691176e+01
155.468796	1.279624	city	7	1	0.931381	0.931381	0	1	0	0	CorrectCommission	0.224551	0.464643	1	0	7.752941e+01
156.748428	1.279646	city	8	1	0.964725	0.964725	0	1	0	0	CorrectCommission	0.141767	0.451012	1	0	7.814706e+01
158.034622	1.292758	city	7	1	0.943355	0.943355	0	1	0	0	CorrectCommission	0.194825	0.443319	1	0	7.876471e+01
159.334183	1.306363	city	3	1	0.951163	0.951163	0	1	0	0	CorrectCommission	0.175438	0.442515	1	0	7.938235e+01
163.752808	7.530874	break	0	1	0.760894	0.760894	0	0	0	0	ThoughtProbe	0.647835	0.449032	1	80	80
168.157974	1.279466	city	7	1	1.035146	1.035146	0	1	0	0	CorrectCommission	0.033074	0.462788	1	0	7.897500e+01
169.437546	1.279681	city	1	1	0.772087	0.772087	0	1	0	0	CorrectCommission	0.620045	0.483309	1	0	7.795000e+01
170.723816	1.292843	city	3	1	0.979437	0.979437	0	1	0	0	CorrectCommission	0.105239	0.509773	1	0	7.692500e+01
172.010056	1.279643	city	2	1	0.550382	0.550382	0	1	0	0	CorrectCommission	1.170493	0.541198	1	0	7.590000e+01
173.296249	1.292740	city	4	1	0.747455	0.747455	0	1	0	0	CorrectCommission	0.681203	0.576484	1	0	7.487500e+01
174.582474	1.279723	city	8	1	0.863444	0.863444	0	1	0	0	CorrectCommission	0.393225	0.614531	1	0	7.385000e+01
175.862152	1.279623	mountain	4	1	0.770562	0.770562	0	0	1	0	CommissionError	0.623832	0.654210	1	0	7.282500e+01
177.155075	1.306236	city	1	1	0.887709	0.887709	0	1	0	0	CorrectCommission	0.332980	0.694362	1	0	7.180000e+01
178.447968	1.279558	city	2	1	0.823354	0.823354	0	1	0	0	CorrectCommission	0.492761	0.733771	1	0	7.077500e+01
179.740860	1.306227	city	1	1	0.633432	0.633432	0	1	0	0	CorrectCommission	0.964297	0.771139	1	0	6.975000e+01
181.040451	1.292943	city	4	1	1.615292	1.615292	0	1	0	0	CorrectCommission	1.473454	0.805110	1	0	6.872500e+01
182.333374	1.292889	mountain	6	0	0.000000	1.118452	1	0	0	0	CorrectOmission	0.239904	0.834317	0	0	6.770000e+01
183.619598	1.279564	city	5	1	0.653068	0.653068	0	1	0	0	CorrectCommission	0.915546	0.857494	0	0	6.667500e+01
184.899170	1.279583	city	10	1	1.729295	1.729295	0	1	0	0	CorrectCommission	1.756500	0.873532	0	0	6.565000e+01
186.178772	1.279608	city	8	1	1.569836	1.569836	0	1	0	0	CorrectCommission	1.360596	0.881602	0	0	6.462500e+01
187.458282	1.279424	mountain	9	0	0.000000	1.036158	1	0	0	0	CorrectOmission	0.035586	0.881263	0	0	6.360000e+01
188.744537	1.293079	city	2	1	0.559507	0.559507	0	1	0	0	CorrectCommission	1.147836	0.872501	0	0	6.257500e+01
190.044174	1.306217	city	10	1	0.571130	0.571130	0	1	0	0	CorrectCommission	1.118980	0.855672	0	0	6.155000e+01
191.336990	1.279399	city	7	1	0.548358	0.548358	0	1	0	0	CorrectCommission	1.175518	0.831553	0	0	6.052500e+01
192.616562	1.279735	city	1	1	0.660031	0.660031	0	1	0	0	CorrectCommission	0.898256	0.801252	1	0	5.950000e+01
193.896133	1.279426	city	10	1	0.556707	0.556707	0	1	0	0	CorrectCommission	1.154789	0.766111	1	0	5.847500e+01
195.175720	1.279733	city	1	1	0.880399	0.880399	0	1	0	0	CorrectCommission	0.351129	0.727570	1	0	5.745000e+01
196.455338	1.279510	city	2	1	0.830414	0.830414	0	1	0	0	CorrectCommission	0.475233	0.687100	1	0	5.642500e+01
197.741623	1.293047	city	1	1	0.768027	0.768027	0	1	0	0	CorrectCommission	0.630127	0.646030	1	0	5.540000e+01
199.027908	1.279539	city	5	1	0.767153	0.767153	0	1	0	0	CorrectCommission	0.632297	0.605504	1	0	5.437500e+01
200.334076	1.332781	city	7	1	0.953398	0.953398	0	1	0	0	CorrectCommission	0.169889	0.566437	1	0	5.335000e+01
201.646957	1.293006	city	5	1	0.769714	0.769714	0	1	0	0	CorrectCommission	0.625937	0.529544	1	0	5.232500e+01
202.939865	1.292784	city	1	1	0.773286	0.773286	0	1	0	0	CorrectCommission	0.617068	0.495379	1	0	5.130000e+01
204.239441	1.306369	city	9	1	0.848864	0.848864	0	1	0	0	CorrectCommission	0.429425	0.464398	1	0	5.027500e+01
205.532410	1.279576	city	5	1	0.717881	0.717881	0	1	0	0	CorrectCommission	0.754629	0.437056	1	0	4.925000e+01
206.811981	1.279561	city	3	1	0.878971	0.878971	0	1	0	0	CorrectCommission	0.354676	0.413841	1	0	4.822500e+01
208.118210	1.332922	city	9	1	1.018243	1.018243	0	1	0	0	CorrectCommission	0.008892	0.395354	1	0	4.720000e+01
209.424469	1.279576	city	4	1	0.976675	0.976675	0	1	0	0	CorrectCommission	0.112098	0.382298	1	0	4.617500e+01
210.704041	1.279577	city	8	1	0.918921	0.918921	0	1	0	0	CorrectCommission	0.255487	0.375490	1	0	4.515000e+01
211.983612	1.279563	city	3	1	0.825515	0.825515	0	1	0	0	CorrectCommission	0.487394	0.375840	1	0	4.412500e+01
213.263184	1.279575	city	7	1	1.200859	1.200859	0	1	0	0	CorrectCommission	0.444505	0.384316	1	0	4.310000e+01
214.542755	1.279583	city	5	1	1.079658	1.079658	0	1	0	0	CorrectCommission	0.143588	0.401920	1	0	4.207500e+01
215.822342	1.279572	city	2	1	0.973847	0.973847	0	1	0	0	CorrectCommission	0.119119	0.429638	1	0	4.105000e+01
217.101913	1.279577	city	10	1	0.754701	0.754701	0	1	0	0	CorrectCommission	0.663212	0.468322	1	0	4.002500e+01
220.554031	5.624668	break	0	0	0.000000	0.931205	0	0	0	0	ThoughtProbe	0.224991	0.518564	1	39	39
224.006180	1.279612	city	7	1	1.089061	1.089061	0	1	0	0	CorrectCommission	0.166933	0.580586	1	0	3.973913e+01
225.285812	1.279674	city	5	1	0.813973	0.813973	0	1	0	0	CorrectCommission	0.516051	0.654095	1	0	4.047826e+01
226.565460	1.279612	city	10	1	0.765533	0.765533	0	1	0	0	CorrectCommission	0.636319	0.738144	1	0	4.121739e+01
227.845062	1.279584	city	1	1	0.935795	0.935795	0	1	0	0	CorrectCommission	0.213593	0.831059	0	0	4.195652e+01
229.124634	1.279566	mountain	3	0	0.000000	0.671861	1	0	0	0	CorrectOmission	0.868886	0.930415	0	0	4.269565e+01
230.404221	1.279597	city	1	1	0.703311	0.703311	0	1	0	0	CorrectCommission	0.790801	1.033028	0	0	4.343478e+01
231.697113	1.306202	city	3	1	1.759727	1.759727	0	1	0	0	CorrectCommission	1.832057	1.135120	0	0	4.417391e+01
232.990005	1.279569	city	1	1	1.472938	1.472938	0	1	0	0	CorrectCommission	1.120020	1.232472	0	0	4.491304e+01
234.282928	1.306281	city	9	1	1.535245	1.535245	0	1	0	0	CorrectCommission	1.274715	1.320748	0	0	4.565217e+01
235.575851	1.279577	city	5	1	1.517789	1.517789	0	1	0	0	CorrectCommission	1.231376	1.395751	0	0	4.639130e+01
236.868759	1.306225	city	1	1	1.950671	1.950671	0	1	0	0	CorrectCommission	2.306130	1.453802	0	0	4.713043e+01
238.161667	1.279594	city	5	1	2.052139	2.052139	0	1	0	0	CorrectCommission	2.558053	1.492041	0	0	4.786957e+01
239.441208	1.279498	city	7	1	1.743048	1.743048	0	1	0	0	CorrectCommission	1.790646	1.508778	0	0	4.860870e+01
240.727448	1.292964	city	2	1	1.762179	1.762179	0	1	0	0	CorrectCommission	1.838143	1.503690	0	0	4.934783e+01
242.027054	1.306251	city	1	1	1.694142	1.694142	0	1	0	0	CorrectCommission	1.669222	1.477921	0	0	5.008696e+01
243.353302	1.346243	city	7	1	1.746087	1.746087	0	1	0	0	CorrectCommission	1.798191	1.434083	0	0	5.082609e+01
244.672867	1.292909	mountain	5	1	1.639536	1.639536	0	0	1	0	CommissionError	1.533647	1.376099	0	0	5.156522e+01
245.959106	1.279560	city	8	1	1.909093	1.909093	0	1	0	0	CorrectCommission	2.202900	1.308906	0	0	5.230435e+01
247.245316	1.292848	mountain	7	0	0.000000	1.613555	1	0	0	0	CorrectOmission	1.469141	1.238010	0	0	5.304348e+01
248.551483	1.319485	city	7	1	1.127721	1.127721	0	1	0	0	CorrectCommission	0.262917	1.168999	0	0	5.378261e+01
249.857758	1.293072	city	1	1	0.826389	0.826389	0	1	0	0	CorrectCommission	0.485225	1.106952	0	0	5.452174e+01
251.150681	1.292786	city	10	1	0.731610	0.731610	0	1	0	0	CorrectCommission	0.720542	1.055897	0	0	5.526087e+01
252.456863	1.319558	city	3	1	0.830406	0.830406	0	1	0	0	CorrectCommission	0.475252	1.018382	0	0	56
253.756454	1.279647	city	2	1	0.769424	0.769424	0	1	0	0	CorrectCommission	0.626657	0.995233	0	0	5.673913e+01
255.036102	1.279627	city	9	1	0.879571	0.879571	0	1	0	0	CorrectCommission	0.353186	0.985469	0	0	5.747826e+01
256.315704	1.279582	city	8	1	0.752173	0.752173	0	1	0	0	CorrectCommission	0.669487	0.986529	0	0	5.821739e+01
257.595184	1.279412	city	2	1	0.762308	0.762308	0	1	0	0	CorrectCommission	0.644325	0.994632	0	0	5.895652e+01
258.874756	1.279727	mountain	5	0	0.000000	0.441587	1	0	0	0	CorrectOmission	1.440608	1.005378	0	0	5.969565e+01
260.161163	1.293060	city	5	1	0.484613	0.484613	0	1	0	0	CorrectCommission	1.333785	1.014382	0	0	6.043478e+01
261.454010	1.292614	city	9	1	1.585986	1.585986	0	1	0	0	CorrectCommission	1.400693	1.017992	0	0	6.117391e+01
262.740051	1.279464	city	8	1	1.783434	1.783434	0	1	0	0	CorrectCommission	1.890915	1.013819	0	0	6.191304e+01
264.026276	1.293030	city	3	1	1.936274	1.936274	0	1	0	0	CorrectCommission	2.270386	1.001112	0	0	6.265217e+01
265.312592	1.279563	city	1	0	0.000000	1.375682	0	0	0	1	OmissionError	0.878553	0.980895	0	0	6.339130e+01
266.598907	1.293060	city	4	1	0.779595	0.779595	0	1	0	0	CorrectCommission	0.601406	0.955851	0	0	6.413043e+01
267.885284	1.279736	city	3	1	0.825949	0.825949	0	1	0	0	CorrectCommission	0.486318	0.929927	0	0	6.486957e+01
269.171478	1.292646	city	7	1	0.723369	0.723369	0	1	0	0	CorrectCommission	0.741002	0.907833	0	0	6.560870e+01
270.457642	1.279677	city	6	1	0.773306	0.773306	0	1	0	0	CorrectCommission	0.617020	0.894393	0	0	6.634783e+01
271.737274	1.279594	city	2	1	0.724727	0.724727	0	1	0	0	CorrectCommission	0.737630	0.893925	0	0	6.708696e+01
273.016876	1.279579	city	4	1	0.774629	0.774629	0	1	0	0	CorrectCommission	0.613736	0.909625	0	0	6.782609e+01
274.303131	1.292922	city	9	1	0.879590	0.879590	0	1	0	0	CorrectCommission	0.353138	0.943089	0	0	6.856522e+01
275.596039	1.292905	city	6	1	0.834449	0.834449	0	1	0	0	CorrectCommission	0.465215	0.994032	0	0	6.930435e+01
276.882263	1.279576	city	8	1	1.036784	1.036784	0	1	0	0	CorrectCommission	0.037142	1.060180	0	0	7.004348e+01
278.168488	1.292835	city	4	1	0.718555	0.718555	0	1	0	0	CorrectCommission	0.752956	1.137399	0	0	7.078261e+01
279.454712	1.279664	city	6	1	0.610610	0.610610	0	1	0	0	CorrectCommission	1.020960	1.220006	0	0	7.152174e+01
280.747589	1.306067	city	5	1	1.740788	1.740788	0	1	0	0	CorrectCommission	1.785035	1.301345	0	0	7.226087e+01
284.173065	5.544902	break	0	0	0.000000	1.924349	0	0	0	0	ThoughtProbe	2.240778	1.374421	0	73	73
287.585266	1.279491	city	9	1	1.758030	1.758030	0	1	0	0	CorrectCommission	1.827844	1.432640	0	0	7.179412e+01
288.884888	1.319738	city	8	1	1.838571	1.838571	0	1	0	0	CorrectCommission	2.027808	1.470516	0	0	7.058824e+01
290.191162	1.292791	city	4	1	1.825872	1.825872	0	1	0	0	CorrectCommission	1.996281	1.484212	0	0	6.938235e+01
291.484070	1.293025	city	9	1	1.852290	1.852290	0	1	0	0	CorrectCommission	2.061870	1.471939	0	0	6.817647e+01
292.776947	1.292731	city	2	1	1.973739	1.973739	0	1	0	0	CorrectCommission	2.363402	1.434138	0	0	6.697059e+01
294.076447	1.306271	city	1	1	2.192313	2.192313	0	1	0	0	CorrectCommission	2.906075	1.373405	0	0	6.576471e+01
295.369415	1.279712	mountain	1	0	0.000000	1.583352	1	0	0	0	CorrectOmission	1.394155	1.294182	0	0	6.455882e+01
296.655670	1.292776	city	8	1	1.003005	1.003005	0	1	0	0	CorrectCommission	0.046726	1.202323	0	0	6.335294e+01
297.948547	1.292957	city	3	1	1.307417	1.307417	0	1	0	0	CorrectCommission	0.709066	1.104498	0	0	6.214706e+01
299.248169	1.306312	city	8	1	1.267934	1.267934	0	1	0	0	CorrectCommission	0.611037	1.007514	0	0	6.094118e+01
300.541077	1.279479	city	10	1	1.584997	1.584997	0	1	0	0	CorrectCommission	1.398238	0.917765	0	0	5.973529e+01
301.847321	1.333004	city	9	1	1.277572	1.277572	0	1	0	0	CorrectCommission	0.634967	0.840669	0	0	5.852941e+01
303.166931	1.306253	city	4	1	1.055889	1.055889	0	1	0	0	CorrectCommission	0.084576	0.780327	1	0	5.732353e+01
304.459839	1.279568	city	6	1	1.015539	1.015539	0	1	0	0	CorrectCommission	0.015605	0.739215	1	0	5.611765e+01
305.739441	1.279583	mountain	5	0	0.000000	0.935892	1	0	0	0	CorrectOmission	0.213353	0.718067	1	0	5.491176e+01
307.025635	1.292838	city	2	1	0.876651	0.876651	0	1	0	0	CorrectCommission	0.360435	0.715929	1	0	5.370588e+01
308.325134	1.306150	city	5	1	0.897521	0.897521	0	1	0	0	CorrectCommission	0.308621	0.730310	1	0	5.250000e+01
309.624664	1.292915	city	1	1	0.780666	0.780666	0	1	0	0	CorrectCommission	0.598745	0.757504	1	0	5.129412e+01
310.924316	1.306401	city	10	1	0.721657	0.721657	0	1	0	0	CorrectCommission	0.745253	0.792998	1	0	5.008824e+01
312.223877	1.292737	city	4	1	0.773555	0.773555	0	1	0	0	CorrectCommission	0.616401	0.831980	0	0	4.888235e+01
313.510132	1.279730	city	6	1	1.650819	1.650819	0	1	0	0	CorrectCommission	1.561660	0.869845	0	0	4.767647e+01
314.796387	1.292809	city	9	1	1.582369	1.582369	0	1	0	0	CorrectCommission	1.391713	0.902631	0	0	4.647059e+01
316.082550	1.279526	city	5	1	1.514874	1.514874	0	1	0	0	CorrectCommission	1.224138	0.927437	0	0	4.526471e+01
317.368866	1.293063	city	2	1	1.533443	1.533443	0	1	0	0	CorrectCommission	1.270239	0.942592	0	0	4.405882e+01
318.655121	1.279479	city	1	1	1.578474	1.578474	0	1	0	0	CorrectCommission	1.382043	0.947705	0	0	4.285294e+01
319.947998	1.306237	city	4	1	1.560744	1.560744	0	1	0	0	CorrectCommission	1.338023	0.943533	0	0	4.164706e+01
321.267609	1.333005	city	7	1	1.411840	1.411840	0	1	0	0	CorrectCommission	0.968326	0.931715	0	0	4.044118e+01
322.580505	1.292811	city	8	1	1.322011	1.322011	0	1	0	0	CorrectCommission	0.745300	0.914393	0	0	3.923529e+01
323.873413	1.293012	city	5	1	1.318495	1.318495	0	1	0	0	CorrectCommission	0.736570	0.893846	0	0	3.802941e+01
325.172974	1.306056	city	8	1	1.172757	1.172757	0	1	0	0	CorrectCommission	0.374733	0.872196	0	0	3.682353e+01
326.472534	1.293093	city	5	1	1.138364	1.138364	0	1	0	0	CorrectCommission	0.289343	0.851184	0	0	3.561765e+01
327.772156	1.306137	city	1	1	0.814924	0.814924	0	1	0	0	CorrectCommission	0.513691	0.832102	0	0	3.441176e+01
329.071625	1.292839	city	4	1	0.711954	0.711954	0	1	0	0	CorrectCommission	0.769343	0.815872	0	0	3.320588e+01
333.176910	6.917706	break	0	1	0.568095	0.568095	0	0	0	0	ThoughtProbe	1.126516	0.803229	1	32	32
337.275665	1.279778	city	4	1	1.809536	1.809536	0	1	0	0	CorrectCommission	1.955720	0.794910	1	0	3.192500e+01
338.595215	1.359346	city	6	1	1.598662	1.598662	0	1	0	0	CorrectCommission	1.432165	0.791738	1	0	3.185000e+01
339.921448	1.293098	city	10	1	0.927538	0.927538	0	1	0	0	CorrectCommission	0.234094	0.794693	1	0	3.177500e+01
341.221008	1.306050	city	3	1	0.942223	0.942223	0	1	0	0	CorrectCommission	0.197635	0.804788	1	0	3.170000e+01
342.520599	1.293097	city	4	1	1.048535	1.048535	0	1	0	0	CorrectCommission	0.066315	0.822829	0	0	3.162500e+01
343.813568	1.292898	city	10	1	0.841193	0.841193	0	1	0	0	CorrectCommission	0.448471	0.849197	0	0	3.155000e+01
345.106415	1.292744	mountain	9	0	0.000000	0.767900	1	0	0	0	CorrectOmission	0.630441	0.883607	0	0	3.147500e+01
346.399261	1.292953	city	6	1	0.756483	0.756483	0	1	0	0	CorrectCommission	0.658788	0.924997	0	0	3.140000e+01
347.705566	1.319676	city	10	1	0.734765	0.734765	0	1	0	0	CorrectCommission	0.712708	0.971533	0	0	3.132500e+01
349.011780	1.292741	city	4	1	0.558797	0.558797	0	1	0	0	CorrectCommission	1.149601	1.020744	0	0	3.125000e+01
350.298035	1.279758	city	9	1	1.763135	1.763135	0	1	0	0	CorrectCommission	1.840516	1.069746	0	0	3.117500e+01
351.611023	1.346221	city	2	1	1.798371	1.798371	0	1	0	0	CorrectCommission	1.928000	1.115488	0	0	3.110000e+01
352.930573	1.292896	city	3	1	1.577901	1.577901	0	1	0	0	CorrectCommission	1.380621	1.155038	0	0	3.102500e+01
354.223480	1.292899	mountain	2	0	0.000000	0.894196	1	0	0	0	CorrectOmission	0.316875	1.185795	0	0	3.095000e+01
355.522980	1.306142	city	1	1	0.639981	0.639981	0	1	0	0	CorrectCommission	0.948038	1.205675	0	0	3.087500e+01
356.822571	1.293013	city	7	1	1.707982	1.707982	0	1	0	0	CorrectCommission	1.703584	1.213189	0	0	3.080000e+01
358.115448	1.292772	city	4	1	1.572430	1.572430	0	1	0	0	CorrectCommission	1.367037	1.207557	0	0	3.072500e+01
359.401672	1.279657	city	2	1	1.751670	1.751670	0	1	0	0	CorrectCommission	1.812052	1.188784	0	0	3.065000e+01
360.707977	1.332953	city	6	1	1.728522	1.728522	0	1	0	0	CorrectCommission	1.754580	1.157603	0	0	3.057500e+01
362.020874	1.292837	city	8	1	1.912008	1.912008	0	1	0	0	CorrectCommission	2.210137	1.115439	0	0	3.050000e+01
363.313721	1.292833	city	1	0	0.000000	1.374540	0	0	0	1	OmissionError	0.875718	1.064247	0	0	3.042500e+01
364.606567	1.292900	city	9	1	0.868278	0.868278	0	1	0	0	CorrectCommission	0.381223	1.006381	0	0	3.035000e+01
365.892883	1.279728	city	7	1	1.145381	1.145381	0	1	0	0	CorrectCommission	0.306765	0.944344	0	0	3.027500e+01
367.172546	1.279588	city	3	1	0.804438	0.804438	0	1	0	0	CorrectCommission	0.539726	0.880632	0	0	3.020000e+01
368.452118	1.279563	city	1	1	0.600804	0.600804	0	1	0	0	CorrectCommission	1.045307	0.817595	0	0	3.012500e+01
369.731628	1.279447	mountain	7	1	0.550054	0.550054	0	0	1	0	CommissionError	1.171307	0.757357	1	0	3.005000e+01
371.011200	1.279720	city	5	1	0.815712	0.815712	0	1	0	0	CorrectCommission	0.511734	0.701809	1	0	2.997500e+01
372.297546	1.292935	city	4	1	0.784203	0.784203	0	1	0	0	CorrectCommission	0.589965	0.652604	1	0	2.990000e+01
373.603699	1.319387	city	2	1	0.762686	0.762686	0	1	0	0	CorrectCommission	0.643387	0.611107	1	0	2.982500e+01
374.916504	1.306238	city	1	1	0.681619	0.681619	0	1	0	0	CorrectCommission	0.844659	0.578359	1	0	2.975000e+01
376.209442	1.279604	city	9	1	0.988480	0.988480	0	1	0	0	CorrectCommission	0.082788	0.554983	1	0	2.967500e+01
377.502411	1.306362	city	10	1	1.096759	1.096759	0	1	0	0	CorrectCommission	0.186045	0.541067	1	0	2.960000e+01
378.808716	1.306244	city	1	1	1.002956	1.002956	0	1	0	0	CorrectCommission	0.046846	0.536051	1	0	2.952500e+01
380.108307	1.292902	city	4	1	0.983112	0.983112	0	1	0	0	CorrectCommission	0.096115	0.538710	1	0	2.945000e+01
381.407867	1.306240	city	6	1	0.952471	0.952471	0	1	0	0	CorrectCommission	0.172191	0.547210	1	0	2.937500e+01
382.714111	1.306254	city	7	1	0.794450	0.794450	0	1	0	0	CorrectCommission	0.564523	0.559313	1	0	2.930000e+01
384.007019	1.279577	city	5	1	0.643552	0.643552	0	1	0	0	CorrectCommission	0.939171	0.572604	1	0	2.922500e+01
385.299927	1.306243	city	8	1	0.642587	0.642587	0	1	0	0	CorrectCommission	0.941566	0.584826	1	0	2.915000e+01
386.592834	1.279555	city	4	1	0.535721	0.535721	0	1	0	0	CorrectCommission	1.206893	0.594226	1	0	2.907500e+01
389.578430	4.691624	break	0	1	0.620089	0.620089	0	0	0	0	ThoughtProbe	0.997426	0.599756	1	29	29
392.570709	1.292914	city	9	1	0.879883	0.879883	0	1	0	0	CorrectCommission	0.352411	0.601236	1	0	2.930000e+01
393.863708	1.293080	city	8	1	0.683286	0.683286	0	1	0	0	CorrectCommission	0.840520	0.599315	1	0	2.960000e+01
395.156677	1.292904	city	1	1	0.670383	0.670383	0	1	0	0	CorrectCommission	0.872556	0.595307	1	0	2.990000e+01
396.449524	1.292778	city	5	1	0.959328	0.959328	0	1	0	0	CorrectCommission	0.155167	0.590943	1	0	3.020000e+01
397.762329	1.332851	mountain	10	1	1.001869	1.001869	0	0	1	0	CommissionError	0.049546	0.588052	1	0	3.050000e+01
399.081970	1.306398	city	8	1	0.839709	0.839709	0	1	0	0	CorrectCommission	0.452154	0.588234	1	0	3.080000e+01
400.388214	1.306084	city	2	1	0.773746	0.773746	0	1	0	0	CorrectCommission	0.615927	0.592601	1	0	3.110000e+01
401.694458	1.306404	city	1	1	0.876167	0.876167	0	1	0	0	CorrectCommission	0.361637	0.601625	1	0	3.140000e+01
403.000763	1.306247	mountain	6	0	0.000000	0.800147	1	0	0	0	CorrectOmission	0.550380	0.615087	1	0	3.170000e+01
404.307007	1.306239	city	1	1	0.735482	0.735482	0	1	0	0	CorrectCommission	0.710929	0.632089	1	0	32
405.619843	1.319388	city	3	1	0.871971	0.871971	0	1	0	0	CorrectCommission	0.372056	0.651184	1	0	3.230000e+01
406.932739	1.306410	city	1	1	0.708534	0.708534	0	1	0	0	CorrectCommission	0.777834	0.670539	1	0	3.260000e+01
408.225647	1.279418	city	5	1	0.611302	0.611302	0	1	0	0	CorrectCommission	1.019241	0.688151	1	0	3.290000e+01
409.518555	1.306397	city	7	1	0.764680	0.764680	0	1	0	0	CorrectCommission	0.638435	0.702036	1	0	3.320000e+01
410.811554	1.279581	city	2	1	0.610569	0.610569	0	1	0	0	CorrectCommission	1.021061	0.710443	1	0	3.350000e+01
412.111115	1.319544	city	6	1	0.680739	0.680739	0	1	0	0	CorrectCommission	0.846844	0.711985	1	0	3.380000e+01
413.417328	1.292907	city	9	1	0.735382	0.735382	0	1	0	0	CorrectCommission	0.711176	0.705769	1	0	3.410000e+01
414.710236	1.292912	city	5	1	0.601464	0.601464	0	1	0	0	CorrectCommission	1.043666	0.691476	1	0	3.440000e+01
416.016388	1.319408	city	1	1	0.809124	0.809124	0	1	0	0	CorrectCommission	0.528090	0.669384	1	0	3.470000e+01
417.329224	1.306244	city	5	1	0.685986	0.685986	0	1	0	0	CorrectCommission	0.833817	0.640394	1	0	35
418.622131	1.279587	city	2	1	0.643463	0.643463	0	1	0	0	CorrectCommission	0.939392	0.605933	1	0	3.530000e+01
419.915131	1.306388	city	4	1	0.697956	0.697956	0	1	0	0	CorrectCommission	0.804098	0.567896	1	0	3.560000e+01
421.234711	1.332786	city	2	1	0.696660	0.696660	0	1	0	0	CorrectCommission	0.807316	0.528513	1	0	3.590000e+01
422.547546	1.292850	city	1	1	0.981919	0.981919	0	1	0	0	CorrectCommission	0.099077	0.490153	1	0	3.620000e+01
423.847137	1.306362	city	5	1	1.018001	1.018001	0	1	0	0	CorrectCommission	0.009495	0.455151	1	0	3.650000e+01
425.146790	1.292955	city	9	1	0.977951	0.977951	0	1	0	0	CorrectCommission	0.108930	0.425621	1	0	3.680000e+01
426.439728	1.292905	mountain	4	0	0.000000	0.960970	1	0	0	0	CorrectOmission	0.151090	0.403338	1	0	3.710000e+01
427.732697	1.293040	city	5	1	0.935055	0.935055	0	1	0	0	CorrectCommission	0.215431	0.389602	1	0	3.740000e+01
429.045593	1.332770	city	9	1	0.868203	0.868203	0	1	0	0	CorrectCommission	0.381410	0.385193	1	0	3.770000e+01
430.391663	1.359366	city	2	1	0.730803	0.730803	0	1	0	0	CorrectCommission	0.722545	0.390409	1	0	38
431.744568	1.346399	city	3	1	1.016980	1.016980	0	1	0	0	CorrectCommission	0.012028	0.405079	1	0	3.830000e+01
433.064148	1.292759	city	6	1	0.891930	0.891930	0	1	0	0	CorrectCommission	0.322502	0.428615	1	0	3.860000e+01
434.363708	1.306381	city	7	1	0.961358	0.961358	0	1	0	0	CorrectCommission	0.150127	0.460108	1	0	3.890000e+01
435.669952	1.306121	city	4	1	0.951995	0.951995	0	1	0	0	CorrectCommission	0.173371	0.498386	1	0	3.920000e+01
436.969543	1.293033	city	8	1	0.728573	0.728573	0	1	0	0	CorrectCommission	0.728083	0.542121	1	0	3.950000e+01
438.269165	1.306235	city	4	1	0.897517	0.897517	0	1	0	0	CorrectCommission	0.308629	0.589911	1	0	3.980000e+01
439.562073	1.279564	city	8	1	0.721526	0.721526	0	1	0	0	CorrectCommission	0.745578	0.640393	1	0	4.010000e+01
440.854919	1.306126	city	6	1	0.637142	0.637142	0	1	0	0	CorrectCommission	0.955086	0.692285	1	0	4.040000e+01
442.161133	1.306296	city	1	1	0.601243	0.601243	0	1	0	0	CorrectCommission	1.044215	0.744449	1	0	4.070000e+01
445.793243	5.957926	break	0	1	0.788828	0.788828	0	0	0	0	ThoughtProbe	0.578481	0.795880	1	41	41
449.412079	1.279773	city	10	1	1.407844	1.407844	0	1	0	0	CorrectCommission	0.958404	0.845702	0	0	4.069565e+01
450.731720	1.359526	city	1	1	1.497276	1.497276	0	1	0	0	CorrectCommission	1.180446	0.893052	0	0	4.039130e+01
452.064545	1.306085	mountain	3	0	0.000000	1.411598	1	0	0	0	CorrectOmission	0.967724	0.937039	0	0	4.008696e+01
453.357452	1.279733	city	4	1	1.191853	1.191853	0	1	0	0	CorrectCommission	0.422144	0.976697	0	0	3.978261e+01
454.643768	1.292905	city	7	1	0.879086	0.879086	0	1	0	0	CorrectCommission	0.354391	1.010990	0	0	3.947826e+01
455.929993	1.279515	city	4	1	1.739245	1.739245	0	1	0	0	CorrectCommission	1.781203	1.038856	0	0	3.917391e+01
457.236145	1.332801	city	1	1	1.645401	1.645401	0	1	0	0	CorrectCommission	1.548208	1.059312	0	0	3.886957e+01
458.569061	1.333032	city	4	1	1.299370	1.299370	0	1	0	0	CorrectCommission	0.689087	1.071671	0	0	3.856522e+01
459.895325	1.319489	city	8	1	1.760226	1.760226	0	1	0	0	CorrectCommission	1.833294	1.075661	0	0	3.826087e+01
461.214874	1.319660	city	5	1	1.950513	1.950513	0	1	0	0	CorrectCommission	2.305736	1.071482	0	0	3.795652e+01
462.527832	1.306240	mountain	10	0	0.000000	1.184641	1	0	0	0	CorrectOmission	0.404238	1.059875	0	0	3.765217e+01
463.820618	1.279306	city	10	1	0.484634	0.484634	0	1	0	0	CorrectCommission	1.333732	1.042087	0	0	3.734783e+01
465.120178	1.319847	city	4	1	0.872515	0.872515	0	1	0	0	CorrectCommission	0.370704	1.019655	0	0	3.704348e+01
466.419922	1.279588	city	7	1	0.697831	0.697831	0	1	0	0	CorrectCommission	0.804407	0.994291	0	0	3.673913e+01
467.712738	1.306066	city	5	1	0.662068	0.662068	0	1	0	0	CorrectCommission	0.893201	0.967634	0	0	3.643478e+01
469.012299	1.293034	mountain	3	0	0.000000	0.586785	1	0	0	0	CorrectOmission	1.080111	0.941121	0	0	3.613043e+01
470.305176	1.292769	city	3	1	0.567134	0.567134	0	1	0	0	CorrectCommission	1.128902	0.915848	0	0	3.582609e+01
471.591431	1.279744	city	6	1	0.698263	0.698263	0	1	0	0	CorrectCommission	0.803336	0.892534	0	0	3.552174e+01
472.884338	1.306068	city	8	1	0.687215	0.687215	0	1	0	0	CorrectCommission	0.830764	0.871503	0	0	3.521739e+01
474.183868	1.292943	city	7	1	0.720257	0.720257	0	1	0	0	CorrectCommission	0.748730	0.852724	0	0	3.491304e+01
475.483521	1.306376	city	5	1	0.722121	0.722121	0	1	0	0	CorrectCommission	0.744101	0.835889	0	0	3.460870e+01
476.796478	1.319577	city	9	1	0.736166	0.736166	0	1	0	0	CorrectCommission	0.709230	0.820521	0	0	3.430435e+01
478.096069	1.279576	city	5	1	0.775434	0.775434	0	1	0	0	CorrectCommission	0.611737	0.806084	0	0	34
479.375641	1.279564	city	4	1	0.614774	0.614774	0	1	0	0	CorrectCommission	1.010621	0.792123	1	0	3.369565e+01
480.661865	1.292903	city	2	1	0.783932	0.783932	0	1	0	0	CorrectCommission	0.590637	0.778363	1	0	3.339130e+01
481.968109	1.319592	city	9	1	0.685164	0.685164	0	1	0	0	CorrectCommission	0.835859	0.764810	1	0	3.308696e+01
483.274292	1.292753	city	7	1	0.498825	0.498825	0	1	0	0	CorrectCommission	1.298497	0.751732	1	0	3.278261e+01
484.567108	1.292906	city	5	1	0.519314	0.519314	0	1	0	0	CorrectCommission	1.247629	0.739570	1	0	3.247826e+01
485.880096	1.333034	city	10	1	0.707176	0.707176	0	1	0	0	CorrectCommission	0.781206	0.728819	1	0	3.217391e+01
487.186340	1.279473	city	5	1	1.071443	1.071443	0	1	0	0	CorrectCommission	0.123193	0.719845	1	0	3.186957e+01
488.472595	1.293011	city	6	1	1.039917	1.039917	0	1	0	0	CorrectCommission	0.044919	0.712635	1	0	3.156522e+01
489.798859	1.359556	city	9	1	0.874068	0.874068	0	1	0	0	CorrectCommission	0.366849	0.706621	1	0	3.126087e+01
491.131714	1.306133	city	4	1	0.779798	0.779798	0	1	0	0	CorrectCommission	0.600901	0.700659	1	0	3.095652e+01
492.464539	1.359495	city	10	1	0.764615	0.764615	0	1	0	0	CorrectCommission	0.638597	0.693041	1	0	3.065217e+01
493.790802	1.293060	city	3	1	0.674903	0.674903	0	1	0	0	CorrectCommission	0.861332	0.681730	1	0	3.034783e+01
495.077057	1.279438	mountain	10	1	0.543192	0.543192	0	0	1	0	CommissionError	1.188345	0.664597	1	0	3.004348e+01
496.369965	1.306384	city	2	1	0.591916	0.591916	0	1	0	0	CorrectCommission	1.067372	0.639739	1	0	2.973913e+01
497.669617	1.292930	city	1	1	0.619738	0.619738	0	1	0	0	CorrectCommission	0.998298	0.605765	1	0	2.943478e+01
498.962463	1.292742	city	9	1	0.573292	0.573292	0	1	0	0	CorrectCommission	1.113613	0.561959	1	0	2.913043e+01
500.255280	1.292904	city	1	1	0.675348	0.675348	0	1	0	0	CorrectCommission	0.860228	0.508339	1	0	2.882609e+01
501.574921	1.346371	city	10	1	0.932993	0.932993	0	1	0	0	CorrectCommission	0.220552	0.445593	1	0	2.852174e+01
502.901154	1.306090	city	7	1	1.039456	1.039456	0	1	0	0	CorrectCommission	0.043775	0.374935	1	0	2.821739e+01
504.214050	1.319714	city	10	1	0.996625	0.996625	0	1	0	0	CorrectCommission	0.062565	0.297883	1	0	2.791304e+01
505.520294	1.292743	city	2	1	1.177718	1.177718	0	1	0	0	CorrectCommission	0.387051	0.216077	1	0	2.760870e+01
506.813171	1.293062	city	3	1	0.937184	0.937184	0	1	0	0	CorrectCommission	0.210146	0.131153	1	0	2.730435e+01
507.459717	8.250545	break	0	0	1.003825	1.003825	0	0	0	0	ThoughtProbe	0.044690	0.044690	1	27	27
