onset	duration	trial_type	image_type	Press	ReactionTime	ReactionTime_Interpolated	CorrectOmission	CorrectCommission	CommissionError	OmissionError	response_type	nonsmoothVarianceTimeCourse	VarianceTimeCourse	In_the_Zone	ThoughtProbe	ThoughtProbe_Interpolated
0.652780	1.279497	city	6	1	1.400413	1.400413	0	1	0	0	CorrectCommission	0.263812	0.263812	1	0	57
1.945588	1.306119	city	9	1	1.268387	1.268387	0	1	0	0	CorrectCommission	0.310744	0.346217	1	0	57
3.238551	1.279807	city	2	1	1.015859	1.015859	0	1	0	0	CorrectCommission	1.409704	0.425101	1	0	57
4.524907	1.292905	city	6	1	1.558518	1.558518	0	1	0	0	CorrectCommission	0.951861	0.497184	1	0	57
5.817840	1.292960	city	1	1	1.258574	1.258574	0	1	0	0	CorrectCommission	0.353448	0.559767	1	0	57
7.104015	1.279390	city	10	1	1.228841	1.228841	0	1	0	0	CorrectCommission	0.482840	0.610879	1	0	57
8.383568	1.279714	city	3	1	1.036382	1.036382	0	1	0	0	CorrectCommission	1.320390	0.649397	1	0	57
9.663215	1.279579	city	2	1	1.178290	1.178290	0	1	0	0	CorrectCommission	0.702829	0.675123	1	0	57
10.942791	1.279575	mountain	6	0	0.000000	1.133171	1	0	0	0	CorrectOmission	0.899181	0.688817	1	0	57
12.222370	1.279583	city	8	1	1.055191	1.055191	0	1	0	0	CorrectCommission	1.238536	0.692062	1	0	57
13.515294	1.306265	city	5	1	1.098517	1.098517	0	1	0	0	CorrectCommission	1.049987	0.687121	1	0	57
14.821561	1.306268	city	10	1	1.310751	1.310751	0	1	0	0	CorrectCommission	0.126381	0.676693	1	0	57
16.114391	1.279391	city	5	1	1.122698	1.122698	0	1	0	0	CorrectCommission	0.944758	0.663644	1	0	57
17.393919	1.279666	city	6	1	1.506758	1.506758	0	1	0	0	CorrectCommission	0.726612	0.650623	1	0	57
18.673563	1.279620	city	10	1	1.421523	1.421523	0	1	0	0	CorrectCommission	0.355679	0.639781	1	0	57
19.953159	1.279576	city	5	1	1.356316	1.356316	0	1	0	0	CorrectCommission	0.071912	0.632476	1	0	57
21.232738	1.279583	mountain	1	0	0.000000	1.395658	1	0	0	0	CorrectOmission	0.243122	0.629106	1	0	57
22.512320	1.279580	mountain	5	0	0.000000	1.460920	1	0	0	0	CorrectOmission	0.527131	0.629047	1	0	57
23.791903	1.279583	city	6	1	1.473473	1.473473	0	1	0	0	CorrectCommission	0.581757	0.630778	1	0	57
25.078173	1.292957	city	7	1	1.354687	1.354687	0	1	0	0	CorrectCommission	0.064820	0.632140	1	0	57
26.371098	1.292893	city	9	1	0.982425	0.982425	0	1	0	0	CorrectCommission	1.555201	0.630735	1	0	57
27.657249	1.279410	city	1	1	1.228904	1.228904	0	1	0	0	CorrectCommission	0.482567	0.624281	1	0	57
28.936810	1.279713	city	8	1	1.121855	1.121855	0	1	0	0	CorrectCommission	0.948425	0.611157	1	0	57
30.216454	1.279573	city	3	1	0.935965	0.935965	0	1	0	0	CorrectCommission	1.757390	0.590641	1	0	57
31.496033	1.279585	city	5	1	1.091349	1.091349	0	1	0	0	CorrectCommission	1.081185	0.563097	1	0	57
32.775616	1.279579	city	6	1	1.249236	1.249236	0	1	0	0	CorrectCommission	0.394085	0.530027	1	0	57
34.055199	1.279594	city	1	1	1.352378	1.352378	0	1	0	0	CorrectCommission	0.054773	0.493851	1	0	57
35.334801	1.279610	city	10	1	1.251503	1.251503	0	1	0	0	CorrectCommission	0.384219	0.457580	1	0	57
36.621037	1.292857	city	6	1	1.335616	1.335616	0	1	0	0	CorrectCommission	0.018173	0.424357	1	0	57
37.947193	1.359459	city	5	1	1.319496	1.319496	0	1	0	0	CorrectCommission	0.088323	0.397089	1	0	57
39.266693	1.279539	city	4	1	1.413175	1.413175	0	1	0	0	CorrectCommission	0.319353	0.378059	1	0	57
40.559566	1.306212	city	2	1	1.341486	1.341486	0	1	0	0	CorrectCommission	0.007372	0.368629	1	0	57
41.859219	1.293093	mountain	1	0	0.000000	1.310579	1	0	0	0	CorrectOmission	0.127131	0.369166	1	0	57
43.145542	1.279554	city	5	1	1.322069	1.322069	0	1	0	0	CorrectCommission	0.077126	0.379037	1	0	57
44.471684	1.372723	city	6	1	1.377573	1.377573	0	1	0	0	CorrectCommission	0.164418	0.396763	1	0	57
45.804581	1.293075	city	8	1	1.314401	1.314401	0	1	0	0	CorrectCommission	0.110498	0.420281	1	0	57
47.104237	1.306232	city	7	1	1.155737	1.155737	0	1	0	0	CorrectCommission	0.800977	0.447248	1	0	57
48.397072	1.279443	city	1	1	1.045190	1.045190	0	1	0	0	CorrectCommission	1.282060	0.475341	1	0	57
49.676651	1.279715	city	5	1	1.460678	1.460678	0	1	0	0	CorrectCommission	0.526078	0.502546	1	0	57
50.962887	1.292755	city	7	1	1.422047	1.422047	0	1	0	0	CorrectCommission	0.357960	0.527355	1	0	57
52.282383	1.346239	city	8	1	1.250462	1.250462	0	1	0	0	CorrectCommission	0.388750	0.548856	1	0	57
53.595291	1.279577	city	9	1	1.554923	1.554923	0	1	0	0	CorrectCommission	0.936217	0.566738	1	0	57
54.881615	1.293070	city	8	1	1.137792	1.137792	0	1	0	0	CorrectCommission	0.879071	0.581168	1	0	57
56.174511	1.292720	city	4	1	1.435164	1.435164	0	1	0	0	CorrectCommission	0.415043	0.592702	1	0	57
57.480747	1.319755	city	8	1	1.204836	1.204836	0	1	0	0	CorrectCommission	0.587307	0.602085	1	0	57
61.966034	7.650816	break	0	0	0.000000	1.383894	0	0	0	0	ThoughtProbe	0.191925	0.610027	1	57	57
66.431221	1.279557	city	7	1	1.584860	1.584860	0	1	0	0	CorrectCommission	1.066496	0.617117	1	0	57
67.710709	1.279426	city	4	1	1.420255	1.420255	0	1	0	0	CorrectCommission	0.350162	0.623683	1	0	57
69.023621	1.346390	city	9	1	1.298211	1.298211	0	1	0	0	CorrectCommission	0.180952	0.629792	1	0	57
70.336594	1.279559	city	8	1	1.022940	1.022940	0	1	0	0	CorrectCommission	1.378889	0.635230	1	0	57
71.616158	1.279566	mountain	8	0	0.000000	1.263844	1	0	0	0	CorrectOmission	0.330514	0.639572	1	0	57
72.895660	1.279445	city	4	1	1.514984	1.514984	0	1	0	0	CorrectCommission	0.762409	0.642356	1	0	57
74.181801	1.292829	city	1	1	1.270422	1.270422	0	1	0	0	CorrectCommission	0.301887	0.643114	1	0	57
75.468071	1.279716	city	2	1	1.142966	1.142966	0	1	0	0	CorrectCommission	0.856554	0.641568	1	0	57
76.747772	1.279693	city	1	1	1.088690	1.088690	0	1	0	0	CorrectCommission	1.092755	0.637647	1	0	57
78.027321	1.279395	city	9	1	1.155331	1.155331	0	1	0	0	CorrectCommission	0.802742	0.631564	1	0	57
79.306900	1.279759	mountain	7	0	0.000000	1.154154	1	0	0	0	CorrectOmission	0.807864	0.623795	1	0	57
80.593147	1.292740	city	10	1	1.180316	1.180316	0	1	0	0	CorrectCommission	0.694011	0.614988	1	0	57
81.892700	1.306372	city	2	1	1.328975	1.328975	0	1	0	0	CorrectCommission	0.047073	0.605852	1	0	57
83.185638	1.279505	city	4	1	1.453037	1.453037	0	1	0	0	CorrectCommission	0.492824	0.597021	1	0	57
84.465149	1.279505	city	8	1	1.289377	1.289377	0	1	0	0	CorrectCommission	0.219398	0.588949	1	0	57
85.744698	1.279604	city	4	1	1.445051	1.445051	0	1	0	0	CorrectCommission	0.458073	0.581854	1	0	57
87.037704	1.306397	city	7	1	1.167420	1.167420	0	1	0	0	CorrectCommission	0.750133	0.575681	1	0	57
88.344017	1.306237	city	9	1	1.058932	1.058932	0	1	0	0	CorrectCommission	1.222256	0.570128	1	0	57
89.650185	1.306093	city	5	1	1.442500	1.442500	0	1	0	0	CorrectCommission	0.446970	0.564723	1	0	57
90.943092	1.279725	city	10	1	1.435674	1.435674	0	1	0	0	CorrectCommission	0.417264	0.558941	1	0	57
92.236061	1.306221	city	4	1	1.538618	1.538618	0	1	0	0	CorrectCommission	0.865261	0.552284	1	0	57
93.535561	1.292772	city	7	1	1.326540	1.326540	0	1	0	0	CorrectCommission	0.057671	0.544297	1	0	57
94.835052	1.306205	city	5	1	1.387013	1.387013	0	1	0	0	CorrectCommission	0.205497	0.534737	1	0	57
96.161354	1.346408	city	2	1	1.501471	1.501471	0	1	0	0	CorrectCommission	0.703600	0.523600	1	0	57
97.487587	1.306052	city	3	1	1.579542	1.579542	0	1	0	0	CorrectCommission	1.043355	0.511215	1	0	57
98.800476	1.319732	city	10	1	1.460502	1.460502	0	1	0	0	CorrectCommission	0.525310	0.498263	1	0	57
100.113472	1.306253	city	7	1	1.582874	1.582874	0	1	0	0	CorrectCommission	1.057855	0.485825	1	0	57
101.406326	1.279465	city	3	1	1.313566	1.313566	0	1	0	0	CorrectCommission	0.114131	0.475255	1	0	57
102.685814	1.279510	mountain	2	0	0.000000	1.306000	1	0	0	0	CorrectOmission	0.147058	0.468079	1	0	57
103.985435	1.319727	city	8	1	1.395693	1.395693	0	1	0	0	CorrectCommission	0.243272	0.465777	1	0	57
105.311745	1.332897	city	3	1	1.418163	1.418163	0	1	0	0	CorrectCommission	0.341060	0.469572	1	0	57
106.637909	1.319429	city	2	1	1.460795	1.460795	0	1	0	0	CorrectCommission	0.526585	0.480221	1	0	57
107.950745	1.306241	city	9	1	1.342941	1.342941	0	1	0	0	CorrectCommission	0.013705	0.497877	1	0	57
109.263710	1.319699	city	6	1	1.218138	1.218138	0	1	0	0	CorrectCommission	0.529418	0.521987	1	0	57
110.563278	1.279431	city	3	1	1.249371	1.249371	0	1	0	0	CorrectCommission	0.393498	0.551320	1	0	57
111.869514	1.333042	city	8	1	1.236400	1.236400	0	1	0	0	CorrectCommission	0.449946	0.584126	1	0	57
113.182503	1.292939	city	5	1	1.353912	1.353912	0	1	0	0	CorrectCommission	0.061451	0.618314	1	0	57
114.488747	1.319546	city	10	1	1.396449	1.396449	0	1	0	0	CorrectCommission	0.246562	0.651803	1	0	57
115.814972	1.332904	city	7	1	1.527469	1.527469	0	1	0	0	CorrectCommission	0.816739	0.682770	1	0	57
119.833656	6.704466	break	0	1	0.524240	0.524240	0	0	0	0	ThoughtProbe	3.549152	0.709914	1	57	57
123.845673	1.319558	city	6	1	1.460329	1.460329	0	1	0	0	CorrectCommission	0.524561	0.732569	1	0	5.652941e+01
125.158569	1.306241	city	4	1	1.542600	1.542600	0	1	0	0	CorrectCommission	0.882588	0.750823	0	0	5.605882e+01
126.458054	1.292722	city	9	1	1.315533	1.315533	0	1	0	0	CorrectCommission	0.105570	0.765180	0	0	5.558824e+01
127.757530	1.306237	city	3	1	1.313319	1.313319	0	1	0	0	CorrectCommission	0.115205	0.776417	0	0	5.511765e+01
129.077194	1.333099	city	10	1	1.285945	1.285945	0	1	0	0	CorrectCommission	0.234331	0.785229	0	0	5.464706e+01
130.390182	1.292869	city	7	1	1.211405	1.211405	0	1	0	0	CorrectCommission	0.558719	0.792047	0	0	5.417647e+01
131.689743	1.306260	city	10	1	0.992868	0.992868	0	1	0	0	CorrectCommission	1.509756	0.796892	0	0	5.370588e+01
132.989227	1.292685	city	3	1	1.421050	1.421050	0	1	0	0	CorrectCommission	0.353622	0.799474	0	0	5.323529e+01
134.282120	1.293106	mountain	9	0	0.000000	1.680447	1	0	0	0	CorrectOmission	1.482475	0.799386	0	0	5.276471e+01
135.595123	1.332918	city	5	1	1.642887	1.642887	0	1	0	0	CorrectCommission	1.319023	0.796257	0	0	5.229412e+01
136.934692	1.346204	city	2	1	1.180201	1.180201	0	1	0	0	CorrectCommission	0.694513	0.790115	0	0	5.182353e+01
138.254242	1.292903	city	7	1	1.037935	1.037935	0	1	0	0	CorrectCommission	1.313634	0.781572	0	0	5.135294e+01
139.553833	1.306261	city	3	1	1.310784	1.310784	0	1	0	0	CorrectCommission	0.126237	0.771909	0	0	5.088235e+01
140.846695	1.279464	city	1	1	1.423220	1.423220	0	1	0	0	CorrectCommission	0.363067	0.763102	0	0	5.041176e+01
142.132919	1.292999	city	7	1	1.704549	1.704549	0	1	0	0	CorrectCommission	1.587364	0.757596	0	0	4.994118e+01
143.439209	1.319570	city	2	1	1.411046	1.411046	0	1	0	0	CorrectCommission	0.310087	0.758033	0	0	4.947059e+01
144.772095	1.346223	city	8	1	1.066977	1.066977	0	1	0	0	CorrectCommission	1.187244	0.766962	0	0	49
146.098343	1.306269	city	3	1	1.388341	1.388341	0	1	0	0	CorrectCommission	0.211278	0.786328	0	0	4.852941e+01
147.451157	1.399346	city	10	1	1.283890	1.283890	0	1	0	0	CorrectCommission	0.243277	0.817168	0	0	4.805882e+01
148.797379	1.293086	city	6	1	1.426081	1.426081	0	1	0	0	CorrectCommission	0.375515	0.859284	0	0	4.758824e+01
150.097031	1.306221	city	3	1	1.393270	1.393270	0	1	0	0	CorrectCommission	0.232727	0.911178	0	0	4.711765e+01
151.389938	1.279604	city	9	1	1.238553	1.238553	0	1	0	0	CorrectCommission	0.440573	0.970072	0	0	4.664706e+01
152.676071	1.292675	city	8	1	1.031315	1.031315	0	1	0	0	CorrectCommission	1.342440	1.032300	0	0	4.617647e+01
153.962311	1.279783	city	4	1	1.463715	1.463715	0	1	0	0	CorrectCommission	0.539296	1.093695	0	0	4.570588e+01
155.241989	1.279599	mountain	2	0	0.000000	1.795495	1	0	0	0	CorrectOmission	1.983145	1.150217	0	0	4.523529e+01
156.521591	1.279592	city	2	1	1.662865	1.662865	0	1	0	0	CorrectCommission	1.405963	1.198400	0	0	4.476471e+01
157.801163	1.279550	city	5	1	0.702040	0.702040	0	1	0	0	CorrectCommission	2.775392	1.235821	0	0	4.429412e+01
159.087311	1.292745	city	10	1	0.513535	0.513535	0	1	0	0	CorrectCommission	3.595735	1.261215	0	0	4.382353e+01
160.386887	1.306398	city	3	1	1.527637	1.527637	0	1	0	0	CorrectCommission	0.817472	1.274411	0	0	4.335294e+01
161.686539	1.292915	city	1	1	1.373218	1.373218	0	1	0	0	CorrectCommission	0.145464	1.276123	0	0	4.288235e+01
162.986115	1.306244	city	3	1	1.275646	1.275646	0	1	0	0	CorrectCommission	0.279152	1.267436	0	0	4.241176e+01
164.285690	1.292917	city	1	1	1.142737	1.142737	0	1	0	0	CorrectCommission	0.857551	1.249381	0	0	4.194118e+01
165.571930	1.279556	city	8	1	1.088635	1.088635	0	1	0	0	CorrectCommission	1.092996	1.222757	0	0	4.147059e+01
166.211716	8.157181	break	0	1	1.193664	1.193664	0	0	0	0	ThoughtProbe	0.635923	1.188064	0	41	41
175.008759	1.279738	city	2	1	1.704370	1.704370	0	1	0	0	CorrectCommission	1.586586	1.145731	0	0	4.139130e+01
176.308395	1.319532	mountain	10	0	0.000000	1.965233	1	0	0	0	CorrectOmission	2.721821	1.096389	0	0	4.178261e+01
177.614609	1.292897	city	9	1	1.944960	1.944960	0	1	0	0	CorrectCommission	2.633594	1.041208	0	0	4.217391e+01
178.907516	1.292929	mountain	4	0	0.000000	1.612255	1	0	0	0	CorrectOmission	1.185715	0.982167	0	0	4.256522e+01
180.193710	1.279452	city	1	1	1.345241	1.345241	0	1	0	0	CorrectCommission	0.023716	0.922043	0	0	4.295652e+01
181.473312	1.279735	city	4	1	1.522043	1.522043	0	1	0	0	CorrectCommission	0.793127	0.864153	0	0	4.334783e+01
182.779541	1.332729	city	2	1	1.408303	1.408303	0	1	0	0	CorrectCommission	0.298148	0.811895	0	0	4.373913e+01
184.119080	1.346353	city	10	1	1.381417	1.381417	0	1	0	0	CorrectCommission	0.181146	0.768244	0	0	4.413043e+01
185.445297	1.306082	city	1	1	1.325752	1.325752	0	1	0	0	CorrectCommission	0.061098	0.735224	1	0	4.452174e+01
186.738220	1.279765	city	3	1	1.285196	1.285196	0	1	0	0	CorrectCommission	0.237592	0.713558	1	0	4.491304e+01
188.017883	1.279556	city	8	1	1.392019	1.392019	0	1	0	0	CorrectCommission	0.227287	0.702521	1	0	4.530435e+01
189.297379	1.279450	city	6	1	1.342986	1.342986	0	1	0	0	CorrectCommission	0.013901	0.700115	1	0	4.569565e+01
190.576889	1.279554	city	4	1	1.550857	1.550857	0	1	0	0	CorrectCommission	0.918520	0.703457	1	0	4.608696e+01
191.856461	1.279595	city	10	1	1.051136	1.051136	0	1	0	0	CorrectCommission	1.256185	0.709366	1	0	4.647826e+01
193.136032	1.279556	city	4	1	1.607622	1.607622	0	1	0	0	CorrectCommission	1.165554	0.714897	1	0	4.686957e+01
194.415680	1.279744	mountain	6	1	0.644543	0.644543	0	0	1	0	CommissionError	3.025610	0.717897	1	0	4.726087e+01
195.695282	1.279443	city	10	1	1.283763	1.283763	0	1	0	0	CorrectCommission	0.243827	0.717333	1	0	4.765217e+01
196.974792	1.279575	city	9	1	1.281957	1.281957	0	1	0	0	CorrectCommission	0.251688	0.713461	1	0	4.804348e+01
198.254364	1.279564	city	2	1	1.337421	1.337421	0	1	0	0	CorrectCommission	0.010316	0.707559	1	0	4.843478e+01
199.534012	1.279732	city	4	1	1.401053	1.401053	0	1	0	0	CorrectCommission	0.266599	0.701642	1	0	4.882609e+01
200.813675	1.279605	city	8	1	1.124219	1.124219	0	1	0	0	CorrectCommission	0.938139	0.698029	1	0	4.921739e+01
202.093170	1.279389	city	10	1	1.089432	1.089432	0	1	0	0	CorrectCommission	1.089527	0.698897	1	0	4.960870e+01
203.372650	1.279579	city	5	1	1.287091	1.287091	0	1	0	0	CorrectCommission	0.229348	0.705906	1	0	50
204.652267	1.279656	city	3	1	1.444230	1.444230	0	1	0	0	CorrectCommission	0.454498	0.719927	1	0	5.039130e+01
205.931870	1.279525	city	7	1	1.337373	1.337373	0	1	0	0	CorrectCommission	0.010528	0.740900	0	0	5.078261e+01
207.211502	1.279741	city	10	1	1.105202	1.105202	0	1	0	0	CorrectCommission	1.020898	0.767911	0	0	5.117391e+01
208.491150	1.279580	city	1	1	1.187507	1.187507	0	1	0	0	CorrectCommission	0.662721	0.799285	0	0	5.156522e+01
209.771362	1.280825	city	7	1	1.177625	1.177625	0	1	0	0	CorrectCommission	0.705725	0.832847	0	0	5.195652e+01
211.050934	1.278315	city	3	1	1.035193	1.035193	0	1	0	0	CorrectCommission	1.325563	0.866202	0	0	5.234783e+01
212.329880	1.279575	city	9	1	1.071559	1.071559	0	1	0	0	CorrectCommission	1.167304	0.897041	0	0	5.273913e+01
213.609375	1.279442	city	8	1	1.281643	1.281643	0	1	0	0	CorrectCommission	0.253055	0.923434	0	0	5.313043e+01
214.888931	1.279652	city	9	1	1.603976	1.603976	0	1	0	0	CorrectCommission	1.149688	0.944017	0	0	5.352174e+01
216.168533	1.279563	mountain	2	1	0.644247	0.644247	0	0	1	0	CommissionError	3.026898	0.958032	0	0	5.391304e+01
217.448151	1.279659	city	1	1	1.477431	1.477431	0	1	0	0	CorrectCommission	0.598983	0.965301	0	0	5.430435e+01
218.727768	1.279579	city	8	1	1.230124	1.230124	0	1	0	0	CorrectCommission	0.477257	0.966184	0	0	5.469565e+01
220.007355	1.279602	city	1	1	1.124131	1.124131	0	1	0	0	CorrectCommission	0.938521	0.961264	0	0	5.508696e+01
221.313568	1.332805	city	6	1	1.264681	1.264681	0	1	0	0	CorrectCommission	0.326870	0.951179	0	0	5.547826e+01
222.633041	1.306162	city	7	1	1.548783	1.548783	0	1	0	0	CorrectCommission	0.909498	0.936445	0	0	5.586957e+01
223.952637	1.333038	city	2	1	1.569429	1.569429	0	1	0	0	CorrectCommission	0.999342	0.917415	0	0	5.626087e+01
225.272247	1.306162	city	3	1	1.654981	1.654981	0	1	0	0	CorrectCommission	1.371651	0.894258	0	0	5.665217e+01
226.578491	1.306323	city	2	1	1.601982	1.601982	0	1	0	0	CorrectCommission	1.141010	0.867057	0	0	5.704348e+01
227.898010	1.332719	city	10	1	1.080159	1.080159	0	1	0	0	CorrectCommission	1.129880	0.835986	0	0	5.743478e+01
229.224258	1.319794	city	9	1	1.249790	1.249790	0	1	0	0	CorrectCommission	0.391672	0.801440	0	0	5.782609e+01
230.523926	1.279514	city	5	1	1.230945	1.230945	0	1	0	0	CorrectCommission	0.473685	0.764189	0	0	5.821739e+01
231.816818	1.306284	city	3	1	1.607645	1.607645	0	1	0	0	CorrectCommission	1.165654	0.725432	1	0	5.860870e+01
232.469955	8.050490	break	0	0	0.000000	1.643890	0	0	0	0	ThoughtProbe	1.323388	0.686705	1	59	59
241.166977	1.293062	city	1	1	1.521005	1.521005	0	1	0	0	CorrectCommission	0.788612	0.649801	1	0	5.880000e+01
242.473297	1.319580	city	5	1	1.420314	1.420314	0	1	0	0	CorrectCommission	0.350419	0.616516	1	0	5.860000e+01
243.799469	1.332751	city	3	1	1.341664	1.341664	0	1	0	0	CorrectCommission	0.008148	0.588421	1	0	5.840000e+01
245.118958	1.306228	city	5	1	1.383173	1.383173	0	1	0	0	CorrectCommission	0.188788	0.566606	1	0	5.820000e+01
246.431839	1.319546	city	9	1	1.349083	1.349083	0	1	0	0	CorrectCommission	0.040435	0.551453	1	0	58
247.731476	1.279732	city	3	1	1.285071	1.285071	0	1	0	0	CorrectCommission	0.238138	0.542637	1	0	5.780000e+01
249.024399	1.306094	city	8	1	1.361557	1.361557	0	1	0	0	CorrectCommission	0.094720	0.539195	1	0	5.760000e+01
250.330643	1.306385	mountain	10	0	0.000000	1.516047	1	0	0	0	CorrectOmission	0.767034	0.539749	1	0	5.740000e+01
251.636948	1.306230	mountain	8	0	0.000000	1.625050	1	0	0	0	CorrectOmission	1.241396	0.542746	1	0	5.720000e+01
252.936508	1.292908	city	4	1	1.565075	1.565075	0	1	0	0	CorrectCommission	0.980397	0.546855	1	0	57
254.262665	1.359391	city	6	1	1.212634	1.212634	0	1	0	0	CorrectCommission	0.553372	0.551169	1	0	5.680000e+01
255.595566	1.306417	city	9	1	1.105011	1.105011	0	1	0	0	CorrectCommission	1.021729	0.555315	1	0	5.660000e+01
256.895233	1.292924	city	1	1	1.231742	1.231742	0	1	0	0	CorrectCommission	0.470214	0.559417	1	0	5.640000e+01
258.221375	1.359366	city	8	1	1.363943	1.363943	0	1	0	0	CorrectCommission	0.105102	0.563951	1	0	5.620000e+01
259.540924	1.279741	city	4	1	1.424357	1.424357	0	1	0	0	CorrectCommission	0.368013	0.569486	1	0	56
260.853821	1.346060	city	3	1	1.372258	1.372258	0	1	0	0	CorrectCommission	0.141288	0.576434	1	0	5.580000e+01
262.179993	1.306230	city	10	1	1.448576	1.448576	0	1	0	0	CorrectCommission	0.473412	0.584844	1	0	5.560000e+01
263.492981	1.319750	city	3	1	1.625897	1.625897	0	1	0	0	CorrectCommission	1.245086	0.594260	1	0	5.540000e+01
264.825958	1.346233	city	1	1	1.310566	1.310566	0	1	0	0	CorrectCommission	0.127188	0.603775	1	0	5.520000e+01
266.138763	1.279398	city	9	1	1.327006	1.327006	0	1	0	0	CorrectCommission	0.055642	0.612227	1	0	55
267.451599	1.346275	city	5	1	1.302739	1.302739	0	1	0	0	CorrectCommission	0.161248	0.618419	1	0	5.480000e+01
268.764587	1.279680	city	4	0	0.000000	0.987724	0	0	0	1	OmissionError	1.532143	0.621389	1	0	5.460000e+01
270.057556	1.306256	city	6	1	0.811474	0.811474	0	1	0	0	CorrectCommission	2.299153	0.620719	1	0	5.440000e+01
271.363708	1.306068	city	9	1	1.203504	1.203504	0	1	0	0	CorrectCommission	0.593102	0.616731	1	0	5.420000e+01
272.663208	1.292894	city	6	1	1.190774	1.190774	0	1	0	0	CorrectCommission	0.648501	0.610564	1	0	54
273.949524	1.279778	city	3	1	1.315178	1.315178	0	1	0	0	CorrectCommission	0.107116	0.603965	1	0	5.380000e+01
275.242462	1.306067	city	6	1	1.282673	1.282673	0	1	0	0	CorrectCommission	0.248570	0.599063	1	0	5.360000e+01
276.535278	1.279590	city	3	1	1.338474	1.338474	0	1	0	0	CorrectCommission	0.005733	0.598027	1	0	5.340000e+01
277.821503	1.292864	city	4	1	1.457578	1.457578	0	1	0	0	CorrectCommission	0.512586	0.602738	1	0	5.320000e+01
279.134399	1.332897	mountain	5	0	0.000000	1.277249	1	0	0	0	CorrectOmission	0.272178	0.614470	1	0	53
280.440735	1.279754	city	2	1	1.182909	1.182909	0	1	0	0	CorrectCommission	0.682729	0.633726	1	0	5.280000e+01
281.740387	1.319577	city	10	1	1.559980	1.559980	0	1	0	0	CorrectCommission	0.958224	0.660177	1	0	5.260000e+01
283.046600	1.292844	city	1	1	1.409402	1.409402	0	1	0	0	CorrectCommission	0.302932	0.692708	1	0	5.240000e+01
284.359406	1.332774	city	8	1	1.296916	1.296916	0	1	0	0	CorrectCommission	0.186588	0.729574	1	0	5.220000e+01
285.685669	1.319727	city	10	1	1.045066	1.045066	0	1	0	0	CorrectCommission	1.282599	0.768574	0	0	52
286.985260	1.279492	city	2	1	1.074265	1.074265	0	1	0	0	CorrectCommission	1.155529	0.807285	0	0	5.180000e+01
288.264862	1.279672	city	9	1	1.284777	1.284777	0	1	0	0	CorrectCommission	0.239414	0.843344	0	0	5.160000e+01
289.597778	1.386206	city	10	1	1.190084	1.190084	0	1	0	0	CorrectCommission	0.651502	0.874668	0	0	5.140000e+01
290.957275	1.332754	city	4	1	1.682636	1.682636	0	1	0	0	CorrectCommission	1.492005	0.899608	0	0	5.120000e+01
295.115814	6.984366	break	0	1	0.684491	0.684491	0	0	0	0	ThoughtProbe	2.851762	0.917077	0	51	51
299.254547	1.293057	mountain	7	1	1.424683	1.424683	0	0	1	0	CommissionError	0.369432	0.926674	0	0	5.080435e+01
300.574188	1.346264	mountain	1	1	1.271187	1.271187	0	0	1	0	CommissionError	0.298556	0.928666	0	0	5.060870e+01
301.940338	1.386001	city	7	1	1.230759	1.230759	0	1	0	0	CorrectCommission	0.474492	0.923841	0	0	5.041304e+01
303.306549	1.346434	city	10	1	1.071056	1.071056	0	1	0	0	CorrectCommission	1.169497	0.913419	0	0	5.021739e+01
304.626129	1.292698	city	8	1	0.967799	0.967799	0	1	0	0	CorrectCommission	1.618851	0.898890	0	0	5.002174e+01
305.932343	1.319738	city	7	1	1.153691	1.153691	0	1	0	0	CorrectCommission	0.809880	0.881913	0	0	4.982609e+01
307.258636	1.332890	city	1	1	1.128313	1.128313	0	1	0	0	CorrectCommission	0.920322	0.864128	0	0	4.963043e+01
308.571564	1.292931	city	3	1	1.565881	1.565881	0	1	0	0	CorrectCommission	0.983903	0.846997	0	0	4.943478e+01
309.897736	1.359435	city	5	0	0.000000	1.495523	0	0	0	1	OmissionError	0.677717	0.831638	0	0	4.923913e+01
311.217224	1.279508	city	1	1	1.343082	1.343082	0	1	0	0	CorrectCommission	0.014317	0.818747	0	0	4.904348e+01
312.503510	1.293070	city	6	1	1.534400	1.534400	0	1	0	0	CorrectCommission	0.846902	0.808527	0	0	4.884783e+01
313.803101	1.306154	city	8	1	1.431098	1.431098	0	1	0	0	CorrectCommission	0.397350	0.800688	0	0	4.865217e+01
315.116028	1.319701	city	10	1	1.560299	1.560299	0	1	0	0	CorrectCommission	0.959611	0.794606	0	0	4.845652e+01
316.442322	1.332846	city	5	1	1.522212	1.522212	0	1	0	0	CorrectCommission	0.793863	0.789448	0	0	4.826087e+01
317.768524	1.319567	mountain	5	0	0.000000	1.599604	1	0	0	0	CorrectOmission	1.130661	0.784405	0	0	4.806522e+01
319.074738	1.292893	city	6	1	1.651616	1.651616	0	1	0	0	CorrectCommission	1.357009	0.778901	0	0	4.786957e+01
320.380920	1.319447	city	4	1	1.537390	1.537390	0	1	0	0	CorrectCommission	0.859914	0.772730	0	0	4.767391e+01
321.713745	1.346227	city	6	1	1.252029	1.252029	0	1	0	0	CorrectCommission	0.381931	0.766146	0	0	4.747826e+01
323.026733	1.279729	city	8	1	1.370231	1.370231	0	1	0	0	CorrectCommission	0.132468	0.759831	0	0	4.728261e+01
324.333038	1.332904	city	9	1	1.850463	1.850463	0	1	0	0	CorrectCommission	2.222359	0.754743	0	0	4.708696e+01
325.645905	1.292809	city	5	1	1.413287	1.413287	0	1	0	0	CorrectCommission	0.319839	0.751892	0	0	4.689130e+01
326.965393	1.346136	city	10	1	1.300521	1.300521	0	1	0	0	CorrectCommission	0.170898	0.752231	0	0	4.669565e+01
328.278259	1.279597	city	4	1	1.446615	1.446615	0	1	0	0	CorrectCommission	0.464876	0.756356	0	0	4.650000e+01
329.584564	1.333053	city	1	1	1.265834	1.265834	0	1	0	0	CorrectCommission	0.321852	0.764367	0	0	4.630435e+01
330.890808	1.279421	city	2	1	1.185015	1.185015	0	1	0	0	CorrectCommission	0.673563	0.775832	0	0	4.610870e+01
332.183716	1.306398	city	1	1	1.245107	1.245107	0	1	0	0	CorrectCommission	0.412051	0.789768	0	0	4.591304e+01
333.476654	1.279488	city	2	1	1.705923	1.705923	0	1	0	0	CorrectCommission	1.593345	0.804816	0	0	4.571739e+01
334.776215	1.319626	city	8	1	1.604914	1.604914	0	1	0	0	CorrectCommission	1.153768	0.819408	0	0	4.552174e+01
336.095734	1.319413	city	5	1	1.568621	1.568621	0	1	0	0	CorrectCommission	0.995828	0.832018	0	0	4.532609e+01
337.441986	1.373066	city	7	1	1.494902	1.494902	0	1	0	0	CorrectCommission	0.675016	0.841336	0	0	4.513043e+01
338.794952	1.332900	city	6	1	1.179884	1.179884	0	1	0	0	CorrectCommission	0.695894	0.846435	0	0	4.493478e+01
340.121185	1.319559	city	9	1	1.058943	1.058943	0	1	0	0	CorrectCommission	1.222210	0.846893	0	0	4.473913e+01
341.434082	1.306212	city	1	1	1.046120	1.046120	0	1	0	0	CorrectCommission	1.278011	0.842792	0	0	4.454348e+01
342.733643	1.292913	city	4	1	1.302601	1.302601	0	1	0	0	CorrectCommission	0.161850	0.834764	0	0	4.434783e+01
344.073120	1.386072	city	6	1	1.195325	1.195325	0	1	0	0	CorrectCommission	0.628695	0.823901	0	0	4.415217e+01
345.419342	1.306353	city	2	1	1.020666	1.020666	0	1	0	0	CorrectCommission	1.388784	0.811688	0	0	4.395652e+01
346.718994	1.292929	mountain	9	1	1.017449	1.017449	0	0	1	0	CommissionError	1.402785	0.799774	0	0	4.376087e+01
348.018585	1.306257	city	2	1	1.119665	1.119665	0	1	0	0	CorrectCommission	0.957958	0.789904	0	0	4.356522e+01
349.331482	1.319537	city	8	1	1.343123	1.343123	0	1	0	0	CorrectCommission	0.014499	0.783700	0	0	4.336957e+01
350.664307	1.346101	city	7	1	1.348302	1.348302	0	1	0	0	CorrectCommission	0.037036	0.782492	0	0	4.317391e+01
351.977203	1.279735	city	10	1	1.054729	1.054729	0	1	0	0	CorrectCommission	1.240547	0.787152	0	0	4.297826e+01
353.256897	1.279611	city	5	1	1.321224	1.321224	0	1	0	0	CorrectCommission	0.080802	0.797949	0	0	4.278261e+01
354.543152	1.292899	city	8	1	1.414363	1.414363	0	1	0	0	CorrectCommission	0.324523	0.814674	0	0	4.258696e+01
355.849243	1.319289	city	9	1	1.667397	1.667397	0	1	0	0	CorrectCommission	1.425686	0.836595	0	0	4.239130e+01
357.195435	1.373096	city	1	1	1.471376	1.471376	0	1	0	0	CorrectCommission	0.572635	0.862574	0	0	4.219565e+01
360.601013	5.438065	break	0	0	0.000000	1.567497	0	0	0	0	ThoughtProbe	0.990938	0.891307	0	42	42
363.973236	1.306400	mountain	5	0	0.000000	1.705572	1	0	0	0	CorrectOmission	1.591816	0.921368	0	0	4.222500e+01
365.266266	1.279635	city	4	1	1.635411	1.635411	0	1	0	0	CorrectCommission	1.286489	0.951359	0	0	4.245000e+01
366.585846	1.359526	city	6	1	1.106827	1.106827	0	1	0	0	CorrectCommission	1.013823	0.979942	0	0	4.267500e+01
367.925354	1.319536	city	7	1	1.421530	1.421530	0	1	0	0	CorrectCommission	0.355711	1.005835	0	0	4.290000e+01
369.238159	1.306073	city	10	1	1.184946	1.184946	0	1	0	0	CorrectCommission	0.673864	1.027826	0	0	4.312500e+01
370.544342	1.306269	city	4	1	1.476213	1.476213	0	1	0	0	CorrectCommission	0.593683	1.044745	0	0	4.335000e+01
371.843964	1.292966	city	3	1	1.679349	1.679349	0	1	0	0	CorrectCommission	1.477697	1.055546	0	0	4.357500e+01
373.150238	1.319567	city	4	1	1.519260	1.519260	0	1	0	0	CorrectCommission	0.781015	1.059382	0	0	4.380000e+01
374.456451	1.292903	mountain	3	1	0.498284	0.498284	0	0	1	0	CommissionError	3.662105	1.055758	0	0	4.402500e+01
375.775970	1.346135	city	5	1	1.226563	1.226563	0	1	0	0	CorrectCommission	0.492751	1.044539	0	0	4.425000e+01
377.102264	1.306427	city	6	1	1.558380	1.558380	0	1	0	0	CorrectCommission	0.951261	1.026159	0	0	4.447500e+01
378.421844	1.332716	city	1	1	1.501591	1.501591	0	1	0	0	CorrectCommission	0.704125	1.001416	0	0	4.470000e+01
379.774719	1.373038	city	9	1	1.498732	1.498732	0	1	0	0	CorrectCommission	0.691684	0.971474	0	0	4.492500e+01
381.127686	1.332910	city	7	1	1.544550	1.544550	0	1	0	0	CorrectCommission	0.891074	0.937712	0	0	4.515000e+01
382.453918	1.319548	city	4	1	1.551844	1.551844	0	1	0	0	CorrectCommission	0.922817	0.901603	0	0	4.537500e+01
383.766754	1.306112	mountain	4	0	0.000000	1.623708	1	0	0	0	CorrectOmission	1.235557	0.864583	0	0	4.560000e+01
385.079681	1.319747	city	2	1	1.594640	1.594640	0	1	0	0	CorrectCommission	1.109059	0.827913	0	0	4.582500e+01
386.405884	1.332677	city	6	1	1.299140	1.299140	0	1	0	0	CorrectCommission	0.176910	0.792665	0	0	4.605000e+01
387.732025	1.319575	city	1	1	1.140598	1.140598	0	1	0	0	CorrectCommission	0.866859	0.759668	0	0	4.627500e+01
389.031677	1.279736	city	3	1	1.426912	1.426912	0	1	0	0	CorrectCommission	0.379133	0.729426	1	0	4.650000e+01
390.331238	1.319409	city	4	1	1.169319	1.169319	0	1	0	0	CorrectCommission	0.741871	0.702174	1	0	4.672500e+01
391.697449	1.413043	city	10	1	1.101869	1.101869	0	1	0	0	CorrectCommission	1.035401	0.677861	1	0	4.695000e+01
393.050385	1.292802	city	6	1	1.405023	1.405023	0	1	0	0	CorrectCommission	0.283876	0.656173	1	0	4.717500e+01
394.336548	1.279527	city	7	1	1.545729	1.545729	0	1	0	0	CorrectCommission	0.896206	0.636629	1	0	4.740000e+01
395.629425	1.306245	city	8	1	1.412704	1.412704	0	1	0	0	CorrectCommission	0.317303	0.618590	1	0	4.762500e+01
396.962402	1.359689	city	2	1	1.367266	1.367266	0	1	0	0	CorrectCommission	0.119564	0.601454	1	0	4.785000e+01
398.321991	1.359475	city	9	1	1.150592	1.150592	0	1	0	0	CorrectCommission	0.823369	0.584710	1	0	4.807500e+01
399.668213	1.332968	city	3	1	1.137167	1.137167	0	1	0	0	CorrectCommission	0.881792	0.568079	1	0	4.830000e+01
400.981049	1.292740	city	6	1	1.527044	1.527044	0	1	0	0	CorrectCommission	0.814891	0.551633	1	0	4.852500e+01
402.327209	1.399567	city	7	1	1.428977	1.428977	0	1	0	0	CorrectCommission	0.388119	0.535916	1	0	4.875000e+01
403.700134	1.346250	city	6	1	1.148969	1.148969	0	1	0	0	CorrectCommission	0.830432	0.521897	1	0	4.897500e+01
405.013031	1.279565	city	5	1	1.504701	1.504701	0	1	0	0	CorrectCommission	0.717658	0.511009	1	0	4.920000e+01
406.312714	1.319778	city	3	1	1.357082	1.357082	0	1	0	0	CorrectCommission	0.075243	0.504964	1	0	4.942500e+01
407.672333	1.399486	city	1	1	1.403318	1.403318	0	1	0	0	CorrectCommission	0.276457	0.505648	1	0	4.965000e+01
409.031830	1.319532	city	6	1	1.430651	1.430651	0	1	0	0	CorrectCommission	0.395403	0.514892	1	0	4.987500e+01
410.344727	1.306240	city	10	1	1.333579	1.333579	0	1	0	0	CorrectCommission	0.027038	0.534278	1	0	5.010000e+01
411.664215	1.332741	city	5	1	1.363251	1.363251	0	1	0	0	CorrectCommission	0.102092	0.564978	1	0	5.032500e+01
413.023712	1.386253	city	2	1	1.270206	1.270206	0	1	0	0	CorrectCommission	0.302826	0.607577	1	0	5.055000e+01
414.403229	1.372773	city	3	1	1.097453	1.097453	0	1	0	0	CorrectCommission	1.054618	0.661971	1	0	5.077500e+01
417.855408	5.531594	break	0	0	0.000000	1.347032	0	0	0	0	ThoughtProbe	0.031509	0.727271	1	51	51
421.274323	1.306211	city	5	1	1.633461	1.633461	0	1	0	0	CorrectCommission	1.277999	0.801770	0	0	5.111765e+01
422.593872	1.332921	city	9	1	1.571256	1.571256	0	1	0	0	CorrectCommission	1.007296	0.882834	0	0	5.123529e+01
423.953522	1.386347	city	7	1	1.595870	1.595870	0	1	0	0	CorrectCommission	1.114412	0.966968	0	0	5.135294e+01
425.306458	1.319569	mountain	1	1	1.338650	1.338650	0	0	1	0	CommissionError	0.004968	1.049871	0	0	5.147059e+01
426.639282	1.346060	city	4	1	1.591518	1.591518	0	1	0	0	CorrectCommission	1.095474	1.126643	0	0	5.158824e+01
427.972168	1.319728	city	7	1	1.534028	1.534028	0	1	0	0	CorrectCommission	0.845285	1.192053	0	0	5.170588e+01
429.331726	1.399377	city	1	1	1.670938	1.670938	0	1	0	0	CorrectCommission	1.441096	1.241084	0	0	5.182353e+01
430.684540	1.306235	city	2	1	1.742726	1.742726	0	1	0	0	CorrectCommission	1.753506	1.269475	0	0	5.194118e+01
431.990875	1.306426	city	3	1	0.775872	0.775872	0	1	0	0	CorrectCommission	2.454090	1.274315	0	0	5.205882e+01
433.330536	1.372885	city	7	1	0.601395	0.601395	0	1	0	0	CorrectCommission	3.213386	1.254515	0	0	5.217647e+01
434.663422	1.292898	city	6	1	0.596188	0.596188	0	1	0	0	CorrectCommission	3.236045	1.211089	0	0	5.229412e+01
435.962982	1.306241	city	10	1	1.204141	1.204141	0	1	0	0	CorrectCommission	0.590331	1.147144	0	0	5.241176e+01
437.262573	1.292909	city	7	1	1.201369	1.201369	0	1	0	0	CorrectCommission	0.602394	1.067563	0	0	5.252941e+01
438.568695	1.319380	city	9	1	1.196296	1.196296	0	1	0	0	CorrectCommission	0.624471	0.978333	0	0	5.264706e+01
439.895264	1.333759	city	1	1	1.405799	1.405799	0	1	0	0	CorrectCommission	0.287253	0.885886	0	0	5.276471e+01
441.228180	1.332032	city	8	1	1.429767	1.429767	0	1	0	0	CorrectCommission	0.391559	0.796297	0	0	5.288235e+01
442.600616	1.412870	city	10	1	1.376652	1.376652	0	1	0	0	CorrectCommission	0.160411	0.714666	1	0	53
443.973541	1.332988	city	5	1	1.247632	1.247632	0	1	0	0	CorrectCommission	0.401064	0.644672	1	0	5.311765e+01
445.286469	1.292826	city	2	1	1.348267	1.348267	0	1	0	0	CorrectCommission	0.036883	0.588393	1	0	5.323529e+01
446.619293	1.372869	city	7	1	1.236674	1.236674	0	1	0	0	CorrectCommission	0.448751	0.546385	1	0	5.335294e+01
447.952271	1.293069	mountain	6	0	0.000000	1.262173	1	0	0	0	CorrectOmission	0.337785	0.517917	1	0	5.347059e+01
449.251862	1.306102	city	10	1	1.408639	1.408639	0	1	0	0	CorrectCommission	0.299611	0.501363	1	0	5.358824e+01
450.571350	1.332869	city	2	1	1.659948	1.659948	0	1	0	0	CorrectCommission	1.393267	0.494587	1	0	5.370588e+01
451.910980	1.346406	city	9	1	1.263670	1.263670	0	1	0	0	CorrectCommission	0.331271	0.495329	1	0	5.382353e+01
453.243958	1.319544	city	7	1	1.442960	1.442960	0	1	0	0	CorrectCommission	0.448970	0.501555	1	0	5.394118e+01
454.570099	1.332763	city	1	1	1.340708	1.340708	0	1	0	0	CorrectCommission	0.003988	0.511595	1	0	5.405882e+01
455.882965	1.292961	city	8	1	1.248030	1.248030	0	1	0	0	CorrectCommission	0.399334	0.524247	1	0	5.417647e+01
457.202606	1.346308	city	7	1	1.174053	1.174053	0	1	0	0	CorrectCommission	0.721268	0.538766	1	0	5.429412e+01
458.528809	1.306092	city	2	1	1.470583	1.470583	0	1	0	0	CorrectCommission	0.569183	0.554791	1	0	5.441176e+01
459.841614	1.319547	city	4	1	1.567519	1.567519	0	1	0	0	CorrectCommission	0.991031	0.572259	1	0	5.452941e+01
461.154541	1.306272	city	3	1	1.508963	1.508963	0	1	0	0	CorrectCommission	0.736207	0.591248	1	0	5.464706e+01
462.467438	1.319565	city	9	1	1.364780	1.364780	0	1	0	0	CorrectCommission	0.108743	0.611919	1	0	5.476471e+01
463.820343	1.386231	city	3	1	1.326575	1.326575	0	1	0	0	CorrectCommission	0.057516	0.634367	1	0	5.488235e+01
464.513458	8.063964	break	0	1	1.008072	1.008072	0	0	0	0	ThoughtProbe	1.443591	0.658596	1	55	55
473.223969	1.293091	mountain	5	0	0.000000	1.259120	1	0	0	0	CorrectOmission	0.351072	0.684407	1	0	5.502941e+01
474.516968	1.292903	city	3	1	1.551152	1.551152	0	1	0	0	CorrectCommission	0.919806	0.711445	1	0	5.505882e+01
475.876526	1.426197	city	2	1	1.355603	1.355603	0	1	0	0	CorrectCommission	0.068809	0.739165	0	0	5.508824e+01
477.269318	1.359394	city	8	1	1.257456	1.257456	0	1	0	0	CorrectCommission	0.358310	0.766909	0	0	5.511765e+01
478.615448	1.332874	city	4	1	1.108961	1.108961	0	1	0	0	CorrectCommission	1.004540	0.793946	0	0	5.514706e+01
479.955017	1.346231	city	6	1	1.885812	1.885812	0	1	0	0	CorrectCommission	2.376192	0.819501	0	0	5.517647e+01
481.334625	1.413038	city	10	1	1.116026	1.116026	0	1	0	0	CorrectCommission	0.973795	0.842779	0	0	5.520588e+01
482.687622	1.292910	city	2	1	1.422484	1.422484	0	1	0	0	CorrectCommission	0.359861	0.863026	0	0	5.523529e+01
484.000488	1.332816	city	8	1	1.234242	1.234242	0	1	0	0	CorrectCommission	0.459334	0.879446	0	0	5.526471e+01
485.306641	1.279539	city	2	1	1.531897	1.531897	0	1	0	0	CorrectCommission	0.836010	0.891269	0	0	5.529412e+01
486.612854	1.332834	city	10	1	1.391812	1.391812	0	1	0	0	CorrectCommission	0.226385	0.897726	0	0	5.532353e+01
487.939117	1.319747	city	5	1	1.585498	1.585498	0	1	0	0	CorrectCommission	1.069273	0.898278	0	0	5.535294e+01
489.258789	1.319557	city	4	1	1.725387	1.725387	0	1	0	0	CorrectCommission	1.678047	0.892718	0	0	5.538235e+01
490.584930	1.332717	city	2	1	1.709160	1.709160	0	1	0	0	CorrectCommission	1.607432	0.881402	0	0	5.541176e+01
491.917816	1.333100	city	1	1	1.636974	1.636974	0	1	0	0	CorrectCommission	1.293288	0.865400	0	0	5.544118e+01
493.244080	1.319395	city	10	1	1.452652	1.452652	0	1	0	0	CorrectCommission	0.491149	0.846541	0	0	5.547059e+01
494.576965	1.346381	city	4	1	1.661691	1.661691	0	1	0	0	CorrectCommission	1.400854	0.827353	0	0	5.550000e+01
495.929932	1.359546	city	10	1	1.419818	1.419818	0	1	0	0	CorrectCommission	0.348259	0.810790	0	0	5.552941e+01
497.262817	1.306233	city	2	1	1.449934	1.449934	0	1	0	0	CorrectCommission	0.479319	0.799972	0	0	5.555882e+01
498.589050	1.346204	city	3	1	1.500076	1.500076	0	1	0	0	CorrectCommission	0.697529	0.797698	0	0	5.558824e+01
499.908600	1.292937	city	9	1	1.307591	1.307591	0	1	0	0	CorrectCommission	0.140134	0.806168	0	0	5.561765e+01
501.234833	1.359527	city	1	1	1.264162	1.264162	0	1	0	0	CorrectCommission	0.329127	0.826624	0	0	5.564706e+01
502.554413	1.279592	city	3	1	1.329755	1.329755	0	1	0	0	CorrectCommission	0.043679	0.859246	0	0	5.567647e+01
503.867249	1.346120	city	6	1	1.546815	1.546815	0	1	0	0	CorrectCommission	0.900930	0.903147	0	0	5.570588e+01
505.206757	1.332890	mountain	10	0	0.000000	1.571077	1	0	0	0	CorrectOmission	1.006518	0.956553	0	0	5.573529e+01
506.526306	1.306178	city	1	1	1.554882	1.554882	0	1	0	0	CorrectCommission	0.936036	1.017139	0	0	5.576471e+01
507.852509	1.346249	city	10	1	1.650565	1.650565	0	1	0	0	CorrectCommission	1.352435	1.082369	0	0	5.579412e+01
509.185486	1.319699	city	9	1	1.579819	1.579819	0	1	0	0	CorrectCommission	1.044558	1.149838	0	0	5.582353e+01
510.525116	1.359565	city	8	1	0.606908	0.606908	0	1	0	0	CorrectCommission	3.189391	1.217606	0	0	5.585294e+01
511.844696	1.279585	city	4	1	1.509932	1.509932	0	1	0	0	CorrectCommission	0.740421	1.284299	0	0	5.588235e+01
513.157532	1.346062	city	8	1	1.488537	1.488537	0	1	0	0	CorrectCommission	0.647316	1.349282	0	0	5.591176e+01
514.483704	1.306375	city	5	1	1.570833	1.570833	0	1	0	0	CorrectCommission	1.005455	1.412435	0	0	5.594118e+01
515.810059	1.346225	city	1	1	1.631677	1.631677	0	1	0	0	CorrectCommission	1.270238	1.474129	0	0	5.597059e+01
519.662231	6.358121	break	0	0	0.000000	1.692521	0	0	0	0	ThoughtProbe	1.535021	1.535021	0	56	56
