onset	duration	trial_type	image_type	Press	ReactionTime	ReactionTime_Interpolated	CorrectOmission	CorrectCommission	CommissionError	OmissionError	response_type	nonsmoothVarianceTimeCourse	VarianceTimeCourse	In_the_Zone	ThoughtProbe	ThoughtProbe_Interpolated
0.653173	1.279552	city	8	1	1.182054	1.182054	0	1	0	0	CorrectCommission	0.138775	0.138775	1	0	26
1.932739	1.279580	city	3	1	0.973917	0.973917	0	1	0	0	CorrectCommission	0.709331	0.252101	1	0	26
3.212332	1.279606	mountain	5	0	0.000000	1.058725	1	0	0	0	CorrectOmission	0.476851	0.365011	1	0	26
4.491929	1.279588	city	5	1	1.127094	1.127094	0	1	0	0	CorrectCommission	0.289434	0.477007	1	0	26
5.771414	1.279384	city	10	1	0.869640	0.869640	0	1	0	0	CorrectCommission	0.995178	0.587360	1	0	26
7.050983	1.279754	city	1	1	1.353344	1.353344	0	1	0	0	CorrectCommission	0.330773	0.695000	1	0	26
8.330628	1.279537	city	2	1	1.017575	1.017575	0	1	0	0	CorrectCommission	0.589652	0.798531	1	0	26
9.610214	1.279633	city	3	1	0.910986	0.910986	0	1	0	0	CorrectCommission	0.881839	0.896149	0	0	26
10.889807	1.279553	city	8	1	0.750295	0.750295	0	1	0	0	CorrectCommission	1.322334	0.985746	0	0	26
12.169381	1.279596	city	3	1	0.866025	0.866025	0	1	0	0	CorrectCommission	1.005088	1.065033	0	0	26
13.468885	1.319413	city	4	1	0.810783	0.810783	0	1	0	0	CorrectCommission	1.156520	1.131781	0	0	26
14.768464	1.279743	city	9	1	0.591251	0.591251	0	1	0	0	CorrectCommission	1.758314	1.184049	0	0	26
16.061386	1.306101	city	2	1	0.596304	0.596304	0	1	0	0	CorrectCommission	1.744460	1.220485	0	0	26
17.354227	1.279583	city	8	1	0.602341	0.602341	0	1	0	0	CorrectCommission	1.727912	1.240569	0	0	26
18.633863	1.279690	mountain	2	1	0.594989	0.594989	0	0	1	0	CommissionError	1.748067	1.244752	0	0	26
19.913479	1.279538	city	10	1	0.748328	0.748328	0	1	0	0	CorrectCommission	1.327726	1.234509	0	0	26
21.199697	1.292903	city	9	1	0.621906	0.621906	0	1	0	0	CorrectCommission	1.674281	1.212238	0	0	26
22.485966	1.279631	mountain	2	1	1.727288	1.727288	0	0	1	0	CommissionError	1.355848	1.180979	0	0	26
23.772226	1.292890	city	6	1	1.580044	1.580044	0	1	0	0	CorrectCommission	0.952214	1.144140	0	0	26
25.058416	1.279491	city	4	1	1.550043	1.550043	0	1	0	0	CorrectCommission	0.869974	1.105076	0	0	26
26.337929	1.279535	city	6	1	1.419125	1.419125	0	1	0	0	CorrectCommission	0.511097	1.066723	0	0	26
27.630804	1.306213	city	5	1	1.048700	1.048700	0	1	0	0	CorrectCommission	0.504332	1.031307	0	0	26
28.923780	1.279741	city	2	1	0.702400	0.702400	0	1	0	0	CorrectCommission	1.453627	1.000152	0	0	26
30.210030	1.292760	city	3	1	1.562233	1.562233	0	1	0	0	CorrectCommission	0.903391	0.973624	0	0	26
31.496223	1.279625	city	4	1	1.192059	1.192059	0	1	0	0	CorrectCommission	0.111350	0.951318	0	0	26
32.775803	1.279534	city	10	1	0.911036	0.911036	0	1	0	0	CorrectCommission	0.881702	0.932302	0	0	26
34.055351	1.279563	city	9	1	0.808217	0.808217	0	1	0	0	CorrectCommission	1.163554	0.915399	0	0	26
35.341587	1.292912	city	8	1	0.661281	0.661281	0	1	0	0	CorrectCommission	1.566343	0.899602	0	0	26
36.647919	1.319745	city	2	1	0.768129	0.768129	0	1	0	0	CorrectCommission	1.273447	0.884344	0	0	26
37.967564	1.319548	city	3	1	1.664394	1.664394	0	1	0	0	CorrectCommission	1.183439	0.869714	0	0	26
39.267044	1.279413	mountain	5	0	0.000000	1.266598	1	0	0	0	CorrectOmission	0.092982	0.856473	0	0	26
40.553295	1.293084	city	4	1	0.832023	0.832023	0	1	0	0	CorrectCommission	1.098296	0.845979	0	0	26
41.852955	1.306240	city	6	1	1.617951	1.617951	0	1	0	0	CorrectCommission	1.056126	0.839855	0	0	26
43.152485	1.292818	city	9	1	1.244521	1.244521	0	1	0	0	CorrectCommission	0.032463	0.839698	0	0	26
44.445404	1.293018	city	7	1	0.940969	0.940969	0	1	0	0	CorrectCommission	0.799649	0.846704	0	0	26
45.771610	1.359393	city	2	1	1.672244	1.672244	0	1	0	0	CorrectCommission	1.204957	0.861254	0	0	26
47.104404	1.306198	city	1	1	1.205912	1.205912	0	1	0	0	CorrectCommission	0.073374	0.882735	0	0	26
48.404037	1.293066	city	7	1	1.199147	1.199147	0	1	0	0	CorrectCommission	0.091918	0.909498	0	0	26
49.690376	1.279611	city	10	1	1.015715	1.015715	0	1	0	0	CorrectCommission	0.594751	0.938900	0	0	26
50.969959	1.279557	city	5	1	0.782633	0.782633	0	1	0	0	CorrectCommission	1.233687	0.967613	0	0	26
52.249531	1.279587	city	3	1	0.767245	0.767245	0	1	0	0	CorrectCommission	1.275870	0.992056	0	0	26
53.542442	1.306238	city	9	1	0.501913	0.501913	0	1	0	0	CorrectCommission	2.003211	1.008877	0	0	26
54.841930	1.292736	city	2	1	0.674538	0.674538	0	1	0	0	CorrectCommission	1.530003	1.015397	0	0	26
56.141415	1.306235	city	7	1	0.769751	0.769751	0	1	0	0	CorrectCommission	1.269000	1.009989	0	0	26
57.454319	1.319569	city	2	1	0.647482	0.647482	0	1	0	0	CorrectCommission	1.604170	0.992201	0	0	26
61.433090	6.637974	break	0	1	0.714300	0.714300	0	0	0	0	ThoughtProbe	1.421004	0.962746	0	26	26
65.398544	1.292931	city	2	1	1.618740	1.618740	0	1	0	0	CorrectCommission	1.058290	0.923318	0	0	2.635000e+01
66.691444	1.292874	city	7	1	1.360147	1.360147	0	1	0	0	CorrectCommission	0.349422	0.876244	0	0	2.670000e+01
67.991005	1.306253	city	10	1	1.166981	1.166981	0	1	0	0	CorrectCommission	0.180094	0.824112	1	0	2.705000e+01
69.283936	1.279595	mountain	3	0	0.000000	1.081819	1	0	0	0	CorrectOmission	0.413544	0.769442	1	0	2.740000e+01
70.583511	1.319569	city	8	1	1.026695	1.026695	0	1	0	0	CorrectCommission	0.564652	0.714459	1	0	2.775000e+01
71.889740	1.292888	mountain	1	0	0.000000	0.923644	1	0	0	0	CorrectOmission	0.847141	0.660979	1	0	2.810000e+01
73.175934	1.279485	city	6	1	0.836315	0.836315	0	1	0	0	CorrectCommission	1.086530	0.610446	1	0	2.845000e+01
74.468758	1.306165	city	2	1	0.828359	0.828359	0	1	0	0	CorrectCommission	1.108340	0.563980	1	0	2.880000e+01
75.775047	1.306417	city	5	1	1.156088	1.156088	0	1	0	0	CorrectCommission	0.209954	0.522499	1	0	2.915000e+01
77.067917	1.279320	city	9	1	1.245616	1.245616	0	1	0	0	CorrectCommission	0.035465	0.486824	1	0	2.950000e+01
78.354095	1.293035	city	6	1	1.088967	1.088967	0	1	0	0	CorrectCommission	0.393951	0.457666	1	0	2.985000e+01
79.653816	1.306405	city	7	1	1.308484	1.308484	0	1	0	0	CorrectCommission	0.207801	0.435603	1	0	3.020000e+01
80.946709	1.279388	city	9	1	1.183467	1.183467	0	1	0	0	CorrectCommission	0.134903	0.421064	1	0	3.055000e+01
82.239601	1.306403	city	3	1	1.156820	1.156820	0	1	0	0	CorrectCommission	0.207948	0.414224	1	0	3.090000e+01
83.532593	1.279570	city	7	1	1.320382	1.320382	0	1	0	0	CorrectCommission	0.240416	0.414921	1	0	3.125000e+01
84.818825	1.292904	city	8	1	1.061592	1.061592	0	1	0	0	CorrectCommission	0.468992	0.422640	1	0	3.160000e+01
86.105072	1.279584	mountain	9	0	0.000000	0.988793	1	0	0	0	CorrectOmission	0.668550	0.436519	1	0	3.195000e+01
87.411217	1.332708	city	1	1	1.078935	1.078935	0	1	0	0	CorrectCommission	0.421451	0.455374	1	0	3.230000e+01
88.717369	1.279587	city	7	1	1.308963	1.308963	0	1	0	0	CorrectCommission	0.209114	0.477814	1	0	3.265000e+01
90.050301	1.386277	city	10	1	1.282620	1.282620	0	1	0	0	CorrectCommission	0.136903	0.502350	1	0	33
91.396614	1.306350	city	4	1	1.456988	1.456988	0	1	0	0	CorrectCommission	0.614888	0.527511	1	0	3.335000e+01
92.722809	1.346047	city	2	1	1.371826	1.371826	0	1	0	0	CorrectCommission	0.381436	0.552009	1	0	3.370000e+01
94.055618	1.319565	city	1	1	1.610064	1.610064	0	1	0	0	CorrectCommission	1.034506	0.574871	1	0	3.405000e+01
95.361877	1.292957	city	9	1	1.659756	1.659756	0	1	0	0	CorrectCommission	1.170725	0.595499	1	0	3.440000e+01
96.674858	1.333002	city	6	1	1.451790	1.451790	0	1	0	0	CorrectCommission	0.600638	0.613722	1	0	3.475000e+01
98.014397	1.346068	city	3	1	1.513058	1.513058	0	1	0	0	CorrectCommission	0.768590	0.629738	1	0	3.510000e+01
99.327286	1.279725	city	9	0	0.000000	1.531641	0	0	0	1	OmissionError	0.819530	0.643980	1	0	3.545000e+01
100.606888	1.279476	city	8	1	1.460646	1.460646	0	1	0	0	CorrectCommission	0.624914	0.656931	1	0	3.580000e+01
101.906387	1.319514	city	4	1	1.253179	1.253179	0	1	0	0	CorrectCommission	0.056195	0.668959	1	0	3.615000e+01
103.219315	1.306340	city	10	1	1.270998	1.270998	0	1	0	0	CorrectCommission	0.105042	0.680160	1	0	3.650000e+01
104.512222	1.279475	city	8	1	1.097019	1.097019	0	1	0	0	CorrectCommission	0.371876	0.690302	1	0	3.685000e+01
105.811745	1.319580	city	6	1	0.853704	0.853704	0	1	0	0	CorrectCommission	1.038864	0.698847	1	0	3.720000e+01
107.131393	1.319709	city	10	1	0.739718	0.739718	0	1	0	0	CorrectCommission	1.351327	0.705068	1	0	3.755000e+01
108.457626	1.332756	city	3	1	0.879033	0.879033	0	1	0	0	CorrectCommission	0.969431	0.708241	1	0	3.790000e+01
109.770523	1.293047	city	8	1	0.858065	0.858065	0	1	0	0	CorrectCommission	1.026910	0.707819	1	0	3.825000e+01
111.083511	1.332934	city	4	1	0.851177	0.851177	0	1	0	0	CorrectCommission	1.045792	0.703553	1	0	3.860000e+01
112.389755	1.279552	city	8	0	0.000000	1.062696	0	0	0	1	OmissionError	0.465966	0.695579	1	0	3.895000e+01
113.682579	1.306095	city	6	1	1.203100	1.203100	0	1	0	0	CorrectCommission	0.081083	0.684428	1	0	3.930000e+01
114.975403	1.279551	city	9	1	0.982868	0.982868	0	1	0	0	CorrectCommission	0.684795	0.670954	1	0	3.965000e+01
115.615181	8.543886	break	0	0	0.000000	1.377776	0	0	0	0	ThoughtProbe	0.397748	0.656239	1	40	40
124.805588	1.293053	city	9	1	1.778049	1.778049	0	1	0	0	CorrectCommission	1.494995	0.641464	1	0	3.945652e+01
126.098579	1.292917	city	3	1	1.573909	1.573909	0	1	0	0	CorrectCommission	0.935396	0.627765	1	0	3.891304e+01
127.398071	1.306076	city	10	1	1.368274	1.368274	0	1	0	0	CorrectCommission	0.371700	0.616149	1	0	3.836957e+01
128.704239	1.306247	city	8	1	1.222190	1.222190	0	1	0	0	CorrectCommission	0.028752	0.607373	1	0	3.782609e+01
130.017151	1.319577	city	2	1	1.230209	1.230209	0	1	0	0	CorrectCommission	0.006772	0.601864	1	0	3.728261e+01
131.350037	1.346193	city	4	1	0.903374	0.903374	0	1	0	0	CorrectCommission	0.902706	0.599693	1	0	3.673913e+01
132.682983	1.319697	city	3	1	1.032374	1.032374	0	1	0	0	CorrectCommission	0.549084	0.600612	1	0	3.619565e+01
133.989304	1.292949	city	10	1	0.974807	0.974807	0	1	0	0	CorrectCommission	0.706892	0.604176	1	0	3.565217e+01
135.275558	1.279557	city	2	1	1.099912	1.099912	0	1	0	0	CorrectCommission	0.363947	0.609811	1	0	3.510870e+01
136.615128	1.399602	mountain	7	1	0.954963	0.954963	0	0	1	0	CommissionError	0.761288	0.617001	1	0	3.456522e+01
138.008011	1.386146	city	1	1	0.979638	0.979638	0	1	0	0	CorrectCommission	0.693647	0.625389	1	0	3.402174e+01
139.347549	1.292954	city	6	1	0.924538	0.924538	0	1	0	0	CorrectCommission	0.844692	0.634848	1	0	3.347826e+01
140.660477	1.332875	city	10	1	0.786859	0.786859	0	1	0	0	CorrectCommission	1.222101	0.645470	1	0	3.293478e+01
141.966553	1.279302	mountain	4	1	1.040461	1.040461	0	0	1	0	CommissionError	0.526916	0.657502	1	0	3.239130e+01
143.272781	1.333129	mountain	10	1	1.178125	1.178125	0	0	1	0	CommissionError	0.149547	0.671245	1	0	3.184783e+01
144.585739	1.292792	city	5	1	1.368222	1.368222	0	1	0	0	CorrectCommission	0.371559	0.686897	1	0	3.130435e+01
145.878571	1.292883	city	1	1	1.176038	1.176038	0	1	0	0	CorrectCommission	0.155266	0.704423	1	0	3.076087e+01
147.164886	1.279742	city	3	1	0.968678	0.968678	0	1	0	0	CorrectCommission	0.723692	0.723476	1	0	3.021739e+01
148.451202	1.292900	city	1	1	0.656361	0.656361	0	1	0	0	CorrectCommission	1.579829	0.743366	1	0	2.967391e+01
149.770782	1.346242	city	7	1	1.068395	1.068395	0	1	0	0	CorrectCommission	0.450342	0.763139	1	0	2.913043e+01
151.090271	1.292744	city	9	1	0.927842	0.927842	0	1	0	0	CorrectCommission	0.835634	0.781716	1	0	2.858696e+01
152.389771	1.306256	mountain	3	0	0.000000	0.910355	1	0	0	0	CorrectOmission	0.883568	0.798005	1	0	2.804348e+01
153.696091	1.306397	city	7	1	0.913658	0.913658	0	1	0	0	CorrectCommission	0.874515	0.811080	1	0	2.750000e+01
154.995682	1.292768	city	5	1	0.835470	0.835470	0	1	0	0	CorrectCommission	1.088847	0.820354	1	0	2.695652e+01
156.308578	1.333037	city	4	1	0.943565	0.943565	0	1	0	0	CorrectCommission	0.792533	0.825696	1	0	2.641304e+01
157.614883	1.279568	city	7	1	0.944160	0.944160	0	1	0	0	CorrectCommission	0.790901	0.827487	1	0	2.586957e+01
158.901108	1.292883	city	5	1	1.703726	1.703726	0	1	0	0	CorrectCommission	1.291257	0.826621	1	0	2.532609e+01
160.200668	1.306231	city	6	1	1.393535	1.393535	0	1	0	0	CorrectCommission	0.440946	0.824412	1	0	2.478261e+01
161.533569	1.359585	city	9	1	1.547846	1.547846	0	1	0	0	CorrectCommission	0.863952	0.822479	1	0	2.423913e+01
162.859818	1.292910	city	8	1	1.732601	1.732601	0	1	0	0	CorrectCommission	1.370410	0.822511	1	0	2.369565e+01
164.165970	1.319379	city	1	1	1.590983	1.590983	0	1	0	0	CorrectCommission	0.982200	0.826019	1	0	2.315217e+01
165.498795	1.346271	city	7	1	1.164013	1.164013	0	1	0	0	CorrectCommission	0.188230	0.834115	0	0	2.260870e+01
166.851685	1.359507	city	8	1	1.152106	1.152106	0	1	0	0	CorrectCommission	0.220870	0.847296	0	0	2.206522e+01
168.204651	1.346428	city	9	1	1.170111	1.170111	0	1	0	0	CorrectCommission	0.171514	0.865281	0	0	2.152174e+01
169.517624	1.279527	city	2	1	0.993609	0.993609	0	1	0	0	CorrectCommission	0.655350	0.887020	0	0	2.097826e+01
170.810516	1.306271	city	7	1	0.785924	0.785924	0	1	0	0	CorrectCommission	1.224667	0.910830	0	0	2.043478e+01
172.110046	1.292776	city	8	1	1.707729	1.707729	0	1	0	0	CorrectCommission	1.302230	0.934604	0	0	1.989130e+01
173.422852	1.332841	city	5	1	1.604965	1.604965	0	1	0	0	CorrectCommission	1.020530	0.956124	0	0	1.934783e+01
174.735733	1.292924	city	2	1	1.750174	1.750174	0	1	0	0	CorrectCommission	1.418584	0.973374	0	0	1.880435e+01
176.022003	1.279598	city	7	1	1.868180	1.868180	0	1	0	0	CorrectCommission	1.742066	0.984790	0	0	1.826087e+01
177.314911	1.306227	city	5	1	1.644409	1.644409	0	1	0	0	CorrectCommission	1.128654	0.989417	0	0	1.771739e+01
178.621140	1.306218	city	2	1	1.566292	1.566292	0	1	0	0	CorrectCommission	0.914516	0.987028	0	0	1.717391e+01
179.927460	1.306423	city	8	1	1.394832	1.394832	0	1	0	0	CorrectCommission	0.444503	0.978006	0	0	1.663043e+01
181.240448	1.319564	city	6	1	1.603851	1.603851	0	1	0	0	CorrectCommission	1.017475	0.963270	0	0	1.608696e+01
182.579910	1.359370	city	1	1	1.497848	1.497848	0	1	0	0	CorrectCommission	0.726894	0.944110	0	0	1.554348e+01
183.259598	9.143800	break	0	0	0.000000	1.703036	0	0	0	0	ThoughtProbe	1.289367	0.922068	0	15	15
193.043121	1.279440	city	5	1	1.817565	1.817565	0	1	0	0	CorrectCommission	1.603320	0.898768	0	0	1.522500e+01
194.329376	1.293063	city	7	1	1.439585	1.439585	0	1	0	0	CorrectCommission	0.567180	0.875814	0	0	1.545000e+01
195.622284	1.292767	city	3	1	1.594068	1.594068	0	1	0	0	CorrectCommission	0.990658	0.854698	0	0	1.567500e+01
196.935104	1.332867	city	7	1	1.227483	1.227483	0	1	0	0	CorrectCommission	0.014243	0.836644	0	0	1.590000e+01
198.241318	1.279580	city	3	1	1.018122	1.018122	0	1	0	0	CorrectCommission	0.588152	0.822588	1	0	1.612500e+01
199.520905	1.279584	city	7	1	1.616978	1.616978	0	1	0	0	CorrectCommission	1.053458	0.813104	1	0	1.635000e+01
200.807251	1.293091	city	4	1	1.457267	1.457267	0	1	0	0	CorrectCommission	0.615652	0.808437	1	0	1.657500e+01
202.106903	1.306235	mountain	3	0	0.000000	1.015763	1	0	0	0	CorrectOmission	0.594621	0.808553	1	0	1.680000e+01
203.406464	1.292884	city	4	1	0.711739	0.711739	0	1	0	0	CorrectCommission	1.428025	0.813158	1	0	1.702500e+01
204.699402	1.292974	city	10	1	0.964470	0.964470	0	1	0	0	CorrectCommission	0.735228	0.821769	1	0	1.725000e+01
205.992218	1.292682	city	6	1	1.123646	1.123646	0	1	0	0	CorrectCommission	0.298886	0.833820	0	0	1.747500e+01
207.298431	1.319743	city	3	1	1.142877	1.142877	0	1	0	0	CorrectCommission	0.246170	0.848703	0	0	1.770000e+01
208.624756	1.332899	city	8	1	0.867374	0.867374	0	1	0	0	CorrectCommission	1.001391	0.865791	0	0	1.792500e+01
209.937668	1.292912	city	10	1	0.679955	0.679955	0	1	0	0	CorrectCommission	1.515153	0.884460	0	0	1.815000e+01
211.237167	1.306101	mountain	4	1	0.553998	0.553998	0	0	1	0	CommissionError	1.860433	0.904057	0	0	1.837500e+01
212.530060	1.279691	city	1	1	0.918864	0.918864	0	1	0	0	CorrectCommission	0.860243	0.923814	0	0	1.860000e+01
213.823044	1.306266	city	7	1	1.276141	1.276141	0	1	0	0	CorrectCommission	0.119141	0.942847	0	0	1.882500e+01
215.129288	1.306225	city	10	1	1.350299	1.350299	0	1	0	0	CorrectCommission	0.322426	0.960067	0	0	1.905000e+01
216.428772	1.292734	city	8	1	1.430139	1.430139	0	1	0	0	CorrectCommission	0.541286	0.974186	0	0	1.927500e+01
217.755020	1.359755	city	2	1	1.538643	1.538643	0	1	0	0	CorrectCommission	0.838723	0.983842	0	0	1.950000e+01
219.094666	1.319546	city	7	1	1.825707	1.825707	0	1	0	0	CorrectCommission	1.625636	0.987789	0	0	1.972500e+01
220.414200	1.319535	city	1	1	2.219189	2.219189	0	1	0	0	CorrectCommission	2.704269	0.985105	0	0	1.995000e+01
221.747696	1.347461	mountain	1	0	0.000000	1.713395	1	0	0	0	CorrectOmission	1.317762	0.975409	0	0	2.017500e+01
223.080597	1.318332	city	5	1	1.185351	1.185351	0	1	0	0	CorrectCommission	0.129737	0.959111	0	0	2.040000e+01
224.379562	1.279581	city	7	1	1.512086	1.512086	0	1	0	0	CorrectCommission	0.765925	0.937374	0	0	2.062500e+01
225.679062	1.319420	city	2	1	1.758853	1.758853	0	1	0	0	CorrectCommission	1.442373	0.912019	0	0	2.085000e+01
226.991959	1.306377	city	7	1	1.657264	1.657264	0	1	0	0	CorrectCommission	1.163893	0.885323	0	0	2.107500e+01
228.298233	1.306173	city	4	0	0.000000	1.536828	0	0	0	1	OmissionError	0.833749	0.859715	0	0	2.130000e+01
229.604477	1.306306	city	5	1	1.392760	1.392760	0	1	0	0	CorrectCommission	0.438822	0.837439	0	0	2.152500e+01
230.917328	1.319410	city	1	1	1.220273	1.220273	0	1	0	0	CorrectCommission	0.034006	0.820253	1	0	2.175000e+01
232.216827	1.279597	city	7	1	1.378541	1.378541	0	1	0	0	CorrectCommission	0.399845	0.809163	1	0	2.197500e+01
233.523071	1.332880	city	5	1	1.071761	1.071761	0	1	0	0	CorrectCommission	0.441115	0.804346	1	0	2.220000e+01
234.836044	1.293075	city	9	1	0.819530	0.819530	0	1	0	0	CorrectCommission	1.132542	0.805192	1	0	2.242500e+01
236.135712	1.306246	city	4	1	1.696123	1.696123	0	1	0	0	CorrectCommission	1.270417	0.810446	1	0	2.265000e+01
237.462173	1.346697	city	8	1	1.311464	1.311464	0	1	0	0	CorrectCommission	0.215969	0.818456	1	0	2.287500e+01
238.808395	1.345725	city	2	1	0.895690	0.895690	0	1	0	0	CorrectCommission	0.923769	0.827468	1	0	2.310000e+01
240.160858	1.359208	city	6	1	1.756491	1.756491	0	1	0	0	CorrectCommission	1.435899	0.835844	0	0	2.332500e+01
241.493774	1.306610	city	1	1	1.509759	1.509759	0	1	0	0	CorrectCommission	0.759546	0.842288	0	0	2.355000e+01
242.800156	1.306162	city	5	1	1.658535	1.658535	0	1	0	0	CorrectCommission	1.167378	0.845988	0	0	2.377500e+01
246.092972	5.279462	break	0	0	0.000000	1.706326	0	0	0	0	ThoughtProbe	1.298386	0.846541	0	24	24
249.391830	1.318269	city	5	1	1.577326	1.577326	0	1	0	0	CorrectCommission	0.944762	0.843908	0	0	2.329412e+01
250.730820	1.359718	mountain	9	1	1.195726	1.195726	0	0	1	0	CommissionError	0.101296	0.838302	0	0	2.258824e+01
252.057129	1.292894	city	1	1	1.090169	1.090169	0	1	0	0	CorrectCommission	0.390654	0.830083	0	0	2.188235e+01
253.376648	1.346134	city	8	1	0.911270	0.911270	0	1	0	0	CorrectCommission	0.881062	0.819629	1	0	2.117647e+01
254.702896	1.306361	city	5	1	0.986365	0.986365	0	1	0	0	CorrectCommission	0.675207	0.807420	1	0	2.047059e+01
256.029175	1.346205	city	2	1	0.741538	0.741538	0	1	0	0	CorrectCommission	1.346339	0.794118	1	0	1.976471e+01
257.362061	1.319566	city	1	1	0.877298	0.877298	0	1	0	0	CorrectCommission	0.974187	0.780597	1	0	1.905882e+01
258.674988	1.306262	city	2	1	1.552064	1.552064	0	1	0	0	CorrectCommission	0.875514	0.768051	1	0	1.835294e+01
259.987885	1.319529	city	7	1	1.775193	1.775193	0	1	0	0	CorrectCommission	1.487167	0.757982	1	0	1.764706e+01
261.307343	1.319400	city	5	1	1.409764	1.409764	0	1	0	0	CorrectCommission	0.485434	0.752075	1	0	1.694118e+01
262.620148	1.306245	city	2	1	1.318850	1.318850	0	1	0	0	CorrectCommission	0.236217	0.752030	1	0	1.623529e+01
263.946472	1.346387	city	6	1	1.280835	1.280835	0	1	0	0	CorrectCommission	0.132008	0.759204	1	0	1.552941e+01
265.286102	1.332898	city	4	1	1.009785	1.009785	0	1	0	0	CorrectCommission	0.611006	0.774316	1	0	1.482353e+01
266.605591	1.306059	city	2	1	0.979499	0.979499	0	1	0	0	CorrectCommission	0.694029	0.797152	1	0	1.411765e+01
267.918488	1.319709	city	3	1	1.165441	1.165441	0	1	0	0	CorrectCommission	0.184314	0.826450	1	0	1.341176e+01
269.264801	1.372926	mountain	5	1	0.952971	0.952971	0	0	1	0	CommissionError	0.766749	0.859907	0	0	1.270588e+01
270.617706	1.332901	city	2	1	1.093607	1.093607	0	1	0	0	CorrectCommission	0.381229	0.894353	0	0	12
271.950592	1.332881	city	8	1	0.750921	0.750921	0	1	0	0	CorrectCommission	1.320616	0.926128	0	0	1.129412e+01
273.290131	1.346201	city	1	1	0.662728	0.662728	0	1	0	0	CorrectCommission	1.562377	0.951485	0	0	1.058824e+01
274.629669	1.332859	city	6	1	0.652221	0.652221	0	1	0	0	CorrectCommission	1.591180	0.967137	0	0	9.882353e+00
275.975861	1.359502	city	7	1	0.593207	0.593207	0	1	0	0	CorrectCommission	1.752951	0.970661	0	0	9.176471e+00
277.308716	1.306222	city	5	1	0.673876	0.673876	0	1	0	0	CorrectCommission	1.531817	0.960801	0	0	8.470588e+00
278.608337	1.293011	city	9	1	1.069445	1.069445	0	1	0	0	CorrectCommission	0.447465	0.937626	0	0	7.764706e+00
279.894562	1.279469	city	7	1	0.888354	0.888354	0	1	0	0	CorrectCommission	0.943878	0.902486	0	0	7.058824e+00
281.187500	1.306364	city	8	1	1.731376	1.731376	0	1	0	0	CorrectCommission	1.367052	0.857762	0	0	6.352941e+00
282.507141	1.332962	city	4	1	1.706400	1.706400	0	1	0	0	CorrectCommission	1.298587	0.806534	1	0	5.647059e+00
283.846710	1.346139	city	9	1	1.460621	1.460621	0	1	0	0	CorrectCommission	0.624845	0.752203	1	0	4.941176e+00
285.172821	1.306095	city	1	1	1.220260	1.220260	0	1	0	0	CorrectCommission	0.034044	0.698081	1	0	4.235294e+00
286.485626	1.319549	city	10	1	1.283799	1.283799	0	1	0	0	CorrectCommission	0.140134	0.647061	1	0	3.529412e+00
287.811859	1.332893	city	1	1	1.044522	1.044522	0	1	0	0	CorrectCommission	0.515784	0.601408	1	0	2.823529e+00
289.118195	1.279759	city	9	1	1.208074	1.208074	0	1	0	0	CorrectCommission	0.067446	0.562661	1	0	2.117647e+00
290.424500	1.332884	city	10	1	1.014015	1.014015	0	1	0	0	CorrectCommission	0.599413	0.531794	1	0	1.411765e+00
291.750732	1.319571	city	6	1	1.266766	1.266766	0	1	0	0	CorrectCommission	0.093442	0.509308	1	0	7.058824e-01
296.049255	7.277457	break	0	0	0.000000	1.499070	0	0	0	0	ThoughtProbe	0.730246	0.495511	1	0	0
300.347839	1.319728	city	6	1	1.606514	1.606514	0	1	0	0	CorrectCommission	1.024775	0.490656	1	0	7.173913e-01
301.687500	1.359578	city	10	1	1.484682	1.484682	0	1	0	0	CorrectCommission	0.690805	0.495051	1	0	1.434783e+00
303.060303	1.386016	mountain	5	0	0.000000	1.412777	1	0	0	0	CorrectOmission	0.493694	0.509036	1	0	2.152174e+00
304.399750	1.292899	city	10	1	1.340878	1.340878	0	1	0	0	CorrectCommission	0.296601	0.532774	1	0	2.869565e+00
305.739380	1.386369	city	9	1	1.219066	1.219066	0	1	0	0	CorrectCommission	0.037317	0.565990	1	0	3.586957e+00
307.072266	1.279410	mountain	2	0	0.000000	1.227664	1	0	0	0	CorrectOmission	0.013747	0.607684	1	0	4.304348e+00
308.378418	1.332907	city	8	1	1.226330	1.226330	0	1	0	0	CorrectCommission	0.017403	0.655937	1	0	5.021739e+00
309.704681	1.319571	city	4	1	1.074722	1.074722	0	1	0	0	CorrectCommission	0.433000	0.707844	1	0	5.739130e+00
311.010834	1.292724	city	9	1	1.247454	1.247454	0	1	0	0	CorrectCommission	0.040504	0.759696	1	0	6.456522e+00
312.303711	1.293087	city	2	1	1.690578	1.690578	0	1	0	0	CorrectCommission	1.255214	0.807347	1	0	7.173913e+00
313.610138	1.319712	city	9	1	1.839703	1.839703	0	1	0	0	CorrectCommission	1.664005	0.846711	0	0	7.891304e+00
314.949799	1.359611	mountain	4	0	0.000000	1.932836	1	0	0	0	CorrectOmission	1.919304	0.874355	0	0	8.608696e+00
316.276001	1.292848	city	9	1	1.935168	1.935168	0	1	0	0	CorrectCommission	1.925697	0.887955	0	0	9.326087e+00
317.582153	1.319426	city	5	1	1.811894	1.811894	0	1	0	0	CorrectCommission	1.587772	0.886631	0	0	1.004348e+01
318.888397	1.293041	city	2	1	1.698920	1.698920	0	1	0	0	CorrectCommission	1.278084	0.871014	0	0	1.076087e+01
320.201263	1.332743	city	6	0	0.000000	1.225573	0	0	0	1	OmissionError	0.019478	0.843124	0	0	1.147826e+01
321.520782	1.306270	city	4	1	0.911539	0.911539	0	1	0	0	CorrectCommission	0.880323	0.805972	1	0	1.219565e+01
322.833771	1.319701	city	7	1	1.276505	1.276505	0	1	0	0	CorrectCommission	0.120139	0.763074	1	0	1.291304e+01
324.146667	1.306070	city	1	1	1.395482	1.395482	0	1	0	0	CorrectCommission	0.446284	0.718056	1	0	1.363043e+01
325.452820	1.306250	city	5	1	1.603532	1.603532	0	1	0	0	CorrectCommission	1.016601	0.674203	1	0	1.434783e+01
326.759155	1.306414	city	3	1	1.450321	1.450321	0	1	0	0	CorrectCommission	0.596612	0.634217	1	0	1.506522e+01
328.112122	1.399509	city	6	1	1.097427	1.097427	0	1	0	0	CorrectCommission	0.370758	0.600078	1	0	1.578261e+01
329.478241	1.332764	city	4	1	1.028634	1.028634	0	1	0	0	CorrectCommission	0.559338	0.573059	1	0	1.650000e+01
330.804474	1.319679	city	2	1	1.234550	1.234550	0	1	0	0	CorrectCommission	0.005130	0.553800	1	0	1.721739e+01
332.110718	1.292789	city	9	1	1.365272	1.365272	0	1	0	0	CorrectCommission	0.363471	0.542443	1	0	1.793478e+01
333.416870	1.319555	city	1	1	1.648542	1.648542	0	1	0	0	CorrectCommission	1.139983	0.538799	1	0	1.865217e+01
334.729858	1.306400	city	2	0	0.000000	1.327787	0	0	0	1	OmissionError	0.260715	0.542481	1	0	1.936957e+01
336.036163	1.306249	city	1	1	0.976933	0.976933	0	1	0	0	CorrectCommission	0.701063	0.553040	1	0	2.008696e+01
337.349091	1.319580	city	9	1	1.169905	1.169905	0	1	0	0	CorrectCommission	0.172078	0.570000	1	0	2.080435e+01
338.675323	1.332875	city	2	1	1.176483	1.176483	0	1	0	0	CorrectCommission	0.154047	0.592921	1	0	2.152174e+01
339.988190	1.292884	city	7	1	1.603067	1.603067	0	1	0	0	CorrectCommission	1.015327	0.621414	1	0	2.223913e+01
341.294342	1.319424	mountain	1	0	0.000000	1.367598	1	0	0	0	CorrectOmission	0.369847	0.655108	1	0	2.295652e+01
342.620514	1.332889	city	8	1	1.058116	1.058116	0	1	0	0	CorrectCommission	0.478521	0.693699	1	0	2.367391e+01
343.993378	1.412864	city	3	1	1.262661	1.262661	0	1	0	0	CorrectCommission	0.082188	0.736868	1	0	2.439130e+01
345.339600	1.279571	city	10	1	2.017133	2.017133	0	1	0	0	CorrectCommission	2.150383	0.784264	1	0	2.510870e+01
346.645935	1.333073	city	7	0	0.000000	1.516405	0	0	0	1	OmissionError	0.777765	0.835367	0	0	2.582609e+01
347.965576	1.306241	city	8	1	0.922203	0.922203	0	1	0	0	CorrectCommission	0.851091	0.889502	0	0	2.654348e+01
349.258484	1.279590	city	7	1	1.396250	1.396250	0	1	0	0	CorrectCommission	0.448388	0.945631	0	0	2.726087e+01
350.578064	1.359529	city	4	0	0.000000	1.568407	0	0	0	1	OmissionError	0.920314	1.002240	0	0	2.797826e+01
351.904205	1.292739	city	3	0	0.000000	1.474884	0	0	0	1	OmissionError	0.663943	1.057314	0	0	2.869565e+01
353.217102	1.333087	city	6	1	1.151888	1.151888	0	1	0	0	CorrectCommission	0.221469	1.108397	0	0	2.941304e+01
354.551239	1.335205	city	5	1	0.635627	0.635627	0	1	0	0	CorrectCommission	1.636666	1.152749	0	0	3.013043e+01
355.870819	1.303915	city	9	0	0.000000	0.444377	0	0	0	1	OmissionError	2.160932	1.187583	0	0	3.084783e+01
357.182556	1.319546	city	8	1	0.817903	0.817903	0	1	0	0	CorrectCommission	1.137004	1.210462	0	0	3.156522e+01
358.488770	1.292929	city	3	1	1.995974	1.995974	0	1	0	0	CorrectCommission	2.092381	1.219654	0	0	3.228261e+01
362.933929	7.597341	break	0	0	0.000000	2.108321	0	0	0	0	ThoughtProbe	2.400353	1.214319	0	33	33
367.385773	1.306377	city	10	1	1.780927	1.780927	0	1	0	0	CorrectCommission	1.502883	1.194695	0	0	3.267647e+01
368.705261	1.332580	city	1	1	1.639773	1.639773	0	1	0	0	CorrectCommission	1.115945	1.162099	0	0	3.235294e+01
370.038055	1.333047	city	9	1	1.123791	1.123791	0	1	0	0	CorrectCommission	0.298488	1.118761	0	0	3.202941e+01
371.391144	1.373094	mountain	1	1	0.965228	0.965228	0	0	1	0	CommissionError	0.733150	1.067576	0	0	3.170588e+01
372.730774	1.306209	city	9	1	0.843268	0.843268	0	1	0	0	CorrectCommission	1.067471	1.011775	0	0	3.138235e+01
374.030334	1.292909	city	2	1	0.625243	0.625243	0	1	0	0	CorrectCommission	1.665133	0.954663	0	0	3.105882e+01
375.356567	1.359529	city	8	1	1.669227	1.669227	0	1	0	0	CorrectCommission	1.196687	0.899284	0	0	3.073529e+01
376.689362	1.306076	city	1	1	1.403997	1.403997	0	1	0	0	CorrectCommission	0.469626	0.848233	0	0	3.041176e+01
378.008850	1.332902	city	5	1	1.298669	1.298669	0	1	0	0	CorrectCommission	0.180896	0.803454	1	0	3.008824e+01
379.348450	1.346295	city	10	1	1.017985	1.017985	0	1	0	0	CorrectCommission	0.588530	0.766117	1	0	2.976471e+01
380.701416	1.359652	city	2	1	0.994669	0.994669	0	1	0	0	CorrectCommission	0.652443	0.736511	1	0	2.944118e+01
382.027618	1.292754	city	1	1	1.243455	1.243455	0	1	0	0	CorrectCommission	0.029541	0.714189	1	0	2.911765e+01
383.327118	1.306238	city	4	1	1.050643	1.050643	0	1	0	0	CorrectCommission	0.499005	0.698068	1	0	2.879412e+01
384.620026	1.279571	city	2	1	1.528394	1.528394	0	1	0	0	CorrectCommission	0.810628	0.686627	1	0	2.847059e+01
385.919678	1.319722	city	1	1	1.663596	1.663596	0	1	0	0	CorrectCommission	1.181251	0.678212	1	0	2.814706e+01
387.265991	1.372888	city	4	1	1.477552	1.477552	0	1	0	0	CorrectCommission	0.671258	0.671340	1	0	2.782353e+01
388.625519	1.346186	city	9	1	1.037805	1.037805	0	1	0	0	CorrectCommission	0.534196	0.664968	1	0	2.750000e+01
389.965088	1.332935	city	3	1	1.787265	1.787265	0	1	0	0	CorrectCommission	1.520260	0.658686	1	0	2.717647e+01
391.284607	1.306129	mountain	4	1	1.483687	1.483687	0	0	1	0	CommissionError	0.688077	0.652770	1	0	2.685294e+01
392.610870	1.346361	city	3	1	1.288752	1.288752	0	1	0	0	CorrectCommission	0.153711	0.648236	1	0	2.652941e+01
393.950470	1.332872	city	10	1	1.008669	1.008669	0	1	0	0	CorrectCommission	0.614066	0.646603	1	0	2.620588e+01
395.270020	1.306237	city	8	1	1.005612	1.005612	0	1	0	0	CorrectCommission	0.622448	0.649628	1	0	2.588235e+01
396.589569	1.332865	city	5	1	1.038904	1.038904	0	1	0	0	CorrectCommission	0.531185	0.659004	1	0	2.555882e+01
397.929016	1.345979	city	3	1	1.190816	1.190816	0	1	0	0	CorrectCommission	0.114755	0.676005	1	0	2.523529e+01
399.248505	1.293010	city	5	1	1.544117	1.544117	0	1	0	0	CorrectCommission	0.853729	0.701160	1	0	2.491176e+01
400.554901	1.319768	city	3	0	0.000000	1.464036	0	0	0	1	OmissionError	0.634208	0.734007	1	0	2.458824e+01
401.874542	1.319538	city	1	0	0.000000	1.188355	0	0	0	1	OmissionError	0.121503	0.773025	1	0	2.426471e+01
403.180664	1.292735	city	10	1	0.954852	0.954852	0	1	0	0	CorrectCommission	0.761592	0.815660	1	0	2.394118e+01
404.480194	1.306274	city	6	1	1.001307	1.001307	0	1	0	0	CorrectCommission	0.634246	0.858552	0	0	2.361765e+01
405.779785	1.292911	city	1	1	1.319592	1.319592	0	1	0	0	CorrectCommission	0.238251	0.897957	0	0	2.329412e+01
407.099304	1.346166	city	6	1	1.718933	1.718933	0	1	0	0	CorrectCommission	1.332942	0.930264	0	0	2.297059e+01
408.425598	1.306423	city	10	1	1.902219	1.902219	0	1	0	0	CorrectCommission	1.835376	0.952478	0	0	2.264706e+01
409.731934	1.306231	city	3	1	1.870620	1.870620	0	1	0	0	CorrectCommission	1.748755	0.962762	0	0	2.232353e+01
410.385040	12.382571	break	0	0	0.000000	2.071489	0	0	0	0	ThoughtProbe	2.299387	0.960757	0	22	22
423.414001	1.292787	city	1	1	2.030090	2.030090	0	1	0	0	CorrectCommission	2.185903	0.947649	0	0	2.167500e+01
424.753479	1.386174	city	4	1	1.271688	1.271688	0	1	0	0	CorrectCommission	0.106935	0.926023	0	0	2.135000e+01
426.126343	1.359551	city	2	1	1.032158	1.032158	0	1	0	0	CorrectCommission	0.549678	0.899492	0	0	2.102500e+01
427.465912	1.319565	city	3	1	1.201896	1.201896	0	1	0	0	CorrectCommission	0.084383	0.872088	0	0	2.070000e+01
428.772217	1.293032	city	5	1	1.218687	1.218687	0	1	0	0	CorrectCommission	0.038355	0.847764	0	0	2.037500e+01
430.111786	1.386091	mountain	1	1	1.130780	1.130780	0	0	1	0	CommissionError	0.279330	0.829883	0	0	2.005000e+01
431.471375	1.333085	city	9	1	0.858852	0.858852	0	1	0	0	CorrectCommission	1.024753	0.820914	1	0	1.972500e+01
432.797577	1.319373	city	10	1	0.972232	0.972232	0	1	0	0	CorrectCommission	0.713951	0.822256	1	0	1.940000e+01
434.123810	1.333040	city	8	1	1.660101	1.660101	0	1	0	0	CorrectCommission	1.171669	0.834304	0	0	1.907500e+01
435.456787	1.332912	city	5	1	1.131272	1.131272	0	1	0	0	CorrectCommission	0.277981	0.856517	0	0	1.875000e+01
436.776276	1.306096	city	3	1	0.847092	0.847092	0	1	0	0	CorrectCommission	1.056988	0.887636	0	0	1.842500e+01
438.102478	1.346298	mountain	9	1	0.672354	0.672354	0	0	1	0	CommissionError	1.535988	0.925797	0	0	1.810000e+01
439.415405	1.279588	city	9	1	0.913013	0.913013	0	1	0	0	CorrectCommission	0.876284	0.968664	0	0	1.777500e+01
440.708282	1.306154	city	7	1	1.045377	1.045377	0	1	0	0	CorrectCommission	0.513440	1.013548	0	0	1.745000e+01
442.021240	1.319737	city	8	1	1.136336	1.136336	0	1	0	0	CorrectCommission	0.264098	1.057538	0	0	1.712500e+01
443.367523	1.372856	city	10	1	0.823991	0.823991	0	1	0	0	CorrectCommission	1.120315	1.097597	0	0	1.680000e+01
444.707062	1.306229	city	6	1	0.839797	0.839797	0	1	0	0	CorrectCommission	1.076985	1.130782	0	0	1.647500e+01
446.026642	1.332896	city	5	1	0.586342	0.586342	0	1	0	0	CorrectCommission	1.771771	1.154586	0	0	1.615000e+01
447.379547	1.372907	city	3	1	1.724148	1.724148	0	1	0	0	CorrectCommission	1.347238	1.167210	0	0	1.582500e+01
448.725769	1.319570	city	5	1	2.024336	2.024336	0	1	0	0	CorrectCommission	2.170129	1.167871	0	0	1.550000e+01
450.078644	1.386182	city	9	1	2.087890	2.087890	0	1	0	0	CorrectCommission	2.344346	1.156939	0	0	1.517500e+01
451.451538	1.359563	city	6	1	1.886151	1.886151	0	1	0	0	CorrectCommission	1.791329	1.135965	0	0	1.485000e+01
452.791107	1.319587	city	1	1	1.608330	1.608330	0	1	0	0	CorrectCommission	1.029752	1.107480	0	0	1.452500e+01
454.130676	1.359592	city	10	0	0.000000	1.221071	0	0	0	1	OmissionError	0.031819	1.074656	0	0	1.420000e+01
455.470245	1.319525	city	5	1	1.083658	1.083658	0	1	0	0	CorrectCommission	0.408504	1.040770	0	0	1.387500e+01
456.769775	1.279515	city	6	1	1.555371	1.555371	0	1	0	0	CorrectCommission	0.884578	1.008748	0	0	1.355000e+01
458.075928	1.332783	mountain	9	0	0.000000	1.225471	1	0	0	0	CorrectOmission	0.019759	0.980818	0	0	1.322500e+01
459.402161	1.319737	city	3	1	0.774828	0.774828	0	1	0	0	CorrectCommission	1.255082	0.958319	0	0	1.290000e+01
460.721741	1.319380	city	7	1	0.884313	0.884313	0	1	0	0	CorrectCommission	0.954957	0.941618	0	0	1.257500e+01
462.027985	1.293102	city	10	1	0.843983	0.843983	0	1	0	0	CorrectCommission	1.065511	0.930312	0	0	1.225000e+01
463.327637	1.306229	city	8	1	0.726075	0.726075	0	1	0	0	CorrectCommission	1.388727	0.923425	0	0	1.192500e+01
464.653839	1.346199	city	4	1	1.568365	1.568365	0	1	0	0	CorrectCommission	0.920198	0.919706	0	0	1.160000e+01
466.080048	1.506158	city	10	1	1.195636	1.195636	0	1	0	0	CorrectCommission	0.101544	0.917853	0	0	1.127500e+01
467.539581	1.412912	city	6	1	1.877260	1.877260	0	1	0	0	CorrectCommission	1.766958	0.916681	0	0	1.095000e+01
468.925812	1.359557	city	1	1	1.687701	1.687701	0	1	0	0	CorrectCommission	1.247328	0.915161	0	0	1.062500e+01
470.285248	1.359358	city	10	1	1.423020	1.423020	0	1	0	0	CorrectCommission	0.521773	0.912513	0	0	1.030000e+01
471.644745	1.359611	city	4	1	1.024671	1.024671	0	1	0	0	CorrectCommission	0.570202	0.908132	0	0	9.975000e+00
472.997650	1.346222	city	9	1	1.679398	1.679398	0	1	0	0	CorrectCommission	1.224568	0.901519	0	0	9.650000e+00
474.330627	1.319695	city	5	1	1.475904	1.475904	0	1	0	0	CorrectCommission	0.666741	0.892270	0	0	9.325000e+00
477.442963	4.904991	break	0	1	1.354965	1.354965	0	0	0	0	ThoughtProbe	0.335218	0.880140	0	9	9
480.561920	1.332931	mountain	2	0	0.000000	1.501553	1	0	0	0	CorrectOmission	0.737051	0.865091	0	0	8.794118e+00
481.874756	1.292757	city	8	1	1.781611	1.781611	0	1	0	0	CorrectCommission	1.504760	0.847363	0	0	8.588235e+00
483.194275	1.346239	city	4	1	2.061084	2.061084	0	1	0	0	CorrectCommission	2.270865	0.827560	1	0	8.382353e+00
484.560577	1.386406	city	1	0	0.000000	1.565544	0	0	0	1	OmissionError	0.912467	0.806636	1	0	8.176471e+00
485.913544	1.319527	city	5	1	1.084656	1.084656	0	1	0	0	CorrectCommission	0.405767	0.785833	1	0	7.970588e+00
487.233124	1.319598	city	9	1	1.408084	1.408084	0	1	0	0	CorrectCommission	0.480830	0.766475	1	0	7.764706e+00
488.565918	1.346017	city	10	1	1.236069	1.236069	0	1	0	0	CorrectCommission	0.009294	0.749723	1	0	7.558824e+00
489.898804	1.319736	city	9	1	1.372521	1.372521	0	1	0	0	CorrectCommission	0.383341	0.736382	1	0	7.352941e+00
491.231781	1.346238	city	4	1	1.250565	1.250565	0	1	0	0	CorrectCommission	0.049031	0.726776	1	0	7.147059e+00
492.564667	1.319537	city	7	1	1.039049	1.039049	0	1	0	0	CorrectCommission	0.530788	0.720753	1	0	6.941176e+00
493.930878	1.412898	city	4	1	0.741772	0.741772	0	1	0	0	CorrectCommission	1.345698	0.717785	1	0	6.735294e+00
495.337097	1.399512	city	2	1	0.762547	0.762547	0	1	0	0	CorrectCommission	1.288748	0.717185	1	0	6.529412e+00
496.689972	1.306261	mountain	5	1	0.788792	0.788792	0	0	1	0	CommissionError	1.216803	0.718365	1	0	6.323529e+00
498.016235	1.346232	city	5	1	0.986624	0.986624	0	1	0	0	CorrectCommission	0.674496	0.721009	1	0	6.117647e+00
499.356445	1.334204	city	4	1	1.024301	1.024301	0	1	0	0	CorrectCommission	0.571214	0.725237	1	0	5.911765e+00
500.696014	1.344910	city	8	1	1.073659	1.073659	0	1	0	0	CorrectCommission	0.435912	0.731547	1	0	5.705882e+00
502.028168	1.319403	city	1	1	0.980265	0.980265	0	1	0	0	CorrectCommission	0.691928	0.740773	1	0	5.500000e+00
503.354370	1.333025	city	5	1	1.089468	1.089468	0	1	0	0	CorrectCommission	0.392576	0.753977	1	0	5.294118e+00
504.687347	1.332923	city	10	1	0.923806	0.923806	0	1	0	0	CorrectCommission	0.846698	0.772348	1	0	5.088235e+00
506.020172	1.332710	city	5	1	1.100001	1.100001	0	1	0	0	CorrectCommission	0.363702	0.797115	1	0	4.882353e+00
507.346375	1.319734	city	8	1	1.001061	1.001061	0	1	0	0	CorrectCommission	0.634920	0.829632	1	0	4.676471e+00
508.679291	1.346055	city	6	1	1.748120	1.748120	0	1	0	0	CorrectCommission	1.412951	0.871405	0	0	4.470588e+00
510.038818	1.373045	city	10	1	1.547813	1.547813	0	1	0	0	CorrectCommission	0.863861	0.924196	0	0	4.264706e+00
511.445129	1.439526	city	2	1	1.277589	1.277589	0	1	0	0	CorrectCommission	0.123109	0.990156	0	0	4.058824e+00
512.851318	1.372908	city	1	1	0.910754	0.910754	0	1	0	0	CorrectCommission	0.882476	1.071816	0	0	3.852941e+00
514.224182	1.372786	city	5	1	0.676627	0.676627	0	1	0	0	CorrectCommission	1.524276	1.171962	0	0	3.647059e+00
515.576965	1.332803	city	10	1	0.741071	0.741071	0	1	0	0	CorrectCommission	1.347618	1.293417	0	0	3.441176e+00
516.936584	1.386394	city	1	1	0.820749	0.820749	0	1	0	0	CorrectCommission	1.129202	1.438666	0	0	3.235294e+00
518.296143	1.332723	city	9	1	1.785610	1.785610	0	1	0	0	CorrectCommission	1.515721	1.609347	0	0	3.029412e+00
519.628906	1.332886	city	5	1	1.613248	1.613248	0	1	0	0	CorrectCommission	1.043234	1.805701	0	0	2.823529e+00
521.021790	1.452870	city	10	1	1.410194	1.410194	0	1	0	0	CorrectCommission	0.486613	2.026195	0	0	2.617647e+00
522.428101	1.359727	city	6	1	0.944203	0.944203	0	1	0	0	CorrectCommission	0.790783	2.267261	0	0	2.411765e+00
523.767761	1.319557	city	2	1	1.596863	1.596863	0	1	0	0	CorrectCommission	0.998319	2.523361	0	0	2.205882e+00
524.427551	8.850360	break	0	0	0.000000	2.249522	0	0	0	0	ThoughtProbe	2.787420	2.787420	0	2	2
