onset	duration	trial_type	image_type	Press	ReactionTime	ReactionTime_Interpolated	CorrectOmission	CorrectCommission	CommissionError	OmissionError	response_type	nonsmoothVarianceTimeCourse	VarianceTimeCourse	In_the_Zone	ThoughtProbe	ThoughtProbe_Interpolated
0.653149	1.279599	city	8	1	1.550926	1.550926	0	1	0	0	CorrectCommission	1.162767	1.162767	0	0	36
1.932675	1.279453	city	6	1	0.588431	0.588431	0	1	0	0	CorrectCommission	2.568634	1.092531	0	0	36
3.212268	1.279734	city	3	1	1.231448	1.231448	0	1	0	0	CorrectCommission	0.075787	1.024954	0	0	36
4.491927	1.279583	city	9	1	1.133529	1.133529	0	1	0	0	CorrectCommission	0.455398	0.962508	0	0	36
5.771502	1.279566	city	7	1	1.529563	1.529563	0	1	0	0	CorrectCommission	1.079946	0.907164	0	0	36
7.051076	1.279583	mountain	1	0	0.000000	1.328261	1	0	0	0	CorrectOmission	0.299538	0.860238	0	0	36
8.330574	1.279412	city	5	1	1.031949	1.031949	0	1	0	0	CorrectCommission	0.849204	0.822338	0	0	36
9.610146	1.279732	city	10	1	1.142953	1.142953	0	1	0	0	CorrectCommission	0.418864	0.793255	0	0	36
10.889734	1.279444	city	5	1	1.035671	1.035671	0	1	0	0	CorrectCommission	0.834775	0.772117	0	0	36
12.169260	1.279608	mountain	10	1	1.177729	1.177729	0	0	1	0	CommissionError	0.284043	0.757449	1	0	36
13.448912	1.279695	city	7	1	1.139632	1.139632	0	1	0	0	CorrectCommission	0.431739	0.747434	1	0	36
14.728555	1.279591	city	2	1	0.911352	0.911352	0	1	0	0	CorrectCommission	1.316733	0.740113	1	0	36
16.008072	1.279444	mountain	6	0	0.000000	0.990964	1	0	0	0	CorrectOmission	1.008094	0.733592	1	0	36
17.287567	1.279547	city	1	1	1.074969	1.074969	0	1	0	0	CorrectCommission	0.682424	0.726284	1	0	36
18.567215	1.279748	city	10	1	0.859867	0.859867	0	1	0	0	CorrectCommission	1.516329	0.717007	1	0	36
19.846863	1.279551	city	7	1	1.189152	1.189152	0	1	0	0	CorrectCommission	0.239760	0.705005	1	0	36
21.126432	1.279588	city	10	1	1.121641	1.121641	0	1	0	0	CorrectCommission	0.501484	0.689991	1	0	36
22.405954	1.279456	city	6	1	1.390931	1.390931	0	1	0	0	CorrectCommission	0.542498	0.671960	1	0	36
23.685532	1.279699	city	10	1	1.609544	1.609544	0	1	0	0	CorrectCommission	1.390015	0.651150	1	0	36
24.965176	1.279588	city	3	1	1.338001	1.338001	0	1	0	0	CorrectCommission	0.337300	0.627871	1	0	36
26.244759	1.279577	city	6	1	1.298008	1.298008	0	1	0	0	CorrectCommission	0.182254	0.602475	1	0	36
27.524330	1.279565	city	3	1	1.458015	1.458015	0	1	0	0	CorrectCommission	0.802570	0.575328	1	0	36
28.803911	1.279599	city	9	1	1.284284	1.284284	0	1	0	0	CorrectCommission	0.129051	0.546749	1	0	36
30.083496	1.279569	city	6	1	1.070676	1.070676	0	1	0	0	CorrectCommission	0.699065	0.517110	1	0	36
31.363026	1.279490	city	5	1	1.017717	1.017717	0	1	0	0	CorrectCommission	0.904379	0.486916	1	0	36
32.642597	1.279656	city	8	1	0.962316	0.962316	0	1	0	0	CorrectCommission	1.119157	0.456814	1	0	36
33.922176	1.279498	city	9	1	1.199930	1.199930	0	1	0	0	CorrectCommission	0.197974	0.427617	1	0	36
35.201763	1.279679	city	8	1	1.229311	1.229311	0	1	0	0	CorrectCommission	0.084071	0.400328	1	0	36
36.481384	1.279561	city	2	1	1.289535	1.289535	0	1	0	0	CorrectCommission	0.149405	0.376001	1	0	36
37.760956	1.279584	city	3	1	1.294372	1.294372	0	1	0	0	CorrectCommission	0.168160	0.355697	1	0	36
39.067112	1.332726	city	1	1	1.215945	1.215945	0	1	0	0	CorrectCommission	0.135886	0.340406	1	0	36
40.380020	1.293091	city	2	1	1.206893	1.206893	0	1	0	0	CorrectCommission	0.170981	0.331006	1	0	36
41.672951	1.292770	city	9	1	1.311701	1.311701	0	1	0	0	CorrectCommission	0.235341	0.328247	1	0	36
42.959183	1.279697	mountain	1	0	0.000000	1.236690	1	0	0	0	CorrectOmission	0.055462	0.332742	1	0	36
44.238777	1.279489	city	10	1	1.102160	1.102160	0	1	0	0	CorrectCommission	0.577008	0.344997	1	0	36
45.531696	1.306349	city	3	1	1.028412	1.028412	0	1	0	0	CorrectCommission	0.862913	0.365382	1	0	36
46.824650	1.279555	city	10	1	1.296383	1.296383	0	1	0	0	CorrectCommission	0.175955	0.394065	1	0	36
48.104210	1.279568	city	7	1	1.319196	1.319196	0	1	0	0	CorrectCommission	0.264395	0.430964	1	0	36
49.390377	1.292765	city	9	1	1.261508	1.261508	0	1	0	0	CorrectCommission	0.040752	0.475554	1	0	36
50.676636	1.279751	city	4	1	1.249436	1.249436	0	1	0	0	CorrectCommission	0.006050	0.526792	1	0	36
51.962955	1.292894	city	9	1	1.373788	1.373788	0	1	0	0	CorrectCommission	0.476040	0.583082	1	0	36
53.262520	1.306232	city	3	1	1.287561	1.287561	0	1	0	0	CorrectCommission	0.141755	0.642307	1	0	36
54.555439	1.279605	city	7	1	1.363856	1.363856	0	1	0	0	CorrectCommission	0.437536	0.702004	1	0	36
55.861694	1.332903	city	5	1	1.625664	1.625664	0	1	0	0	CorrectCommission	1.452511	0.759632	0	0	36
57.174503	1.292717	city	3	1	1.525718	1.525718	0	1	0	0	CorrectCommission	1.065039	0.812884	0	0	36
60.286720	4.931718	break	0	0	0.000000	1.621884	0	0	0	0	ThoughtProbe	1.437856	0.860026	0	36	36
63.399124	1.293087	mountain	5	0	0.000000	1.718413	1	0	0	0	CorrectOmission	1.812081	0.900078	0	0	3.614706e+01
64.685394	1.279461	city	6	1	1.619556	1.619556	0	1	0	0	CorrectCommission	1.428833	0.932920	0	0	3.629412e+01
65.964890	1.279520	city	2	1	1.129564	1.129564	0	1	0	0	CorrectCommission	0.470769	0.959258	0	0	3.644118e+01
67.244514	1.279737	city	7	1	1.089560	1.089560	0	1	0	0	CorrectCommission	0.625856	0.980409	0	0	3.658824e+01
68.537407	1.306038	city	4	1	1.092616	1.092616	0	1	0	0	CorrectCommission	0.614009	0.997976	0	0	3.673529e+01
69.830315	1.279786	city	8	1	1.042193	1.042193	0	1	0	0	CorrectCommission	0.809490	1.013545	0	0	3.688235e+01
71.109993	1.279566	city	3	1	0.979589	0.979589	0	1	0	0	CorrectCommission	1.052194	1.028396	0	0	3.702941e+01
72.389526	1.279509	city	8	1	0.965285	0.965285	0	1	0	0	CorrectCommission	1.107646	1.043292	0	0	3.717647e+01
73.669106	1.279646	city	6	1	0.964843	0.964843	0	1	0	0	CorrectCommission	1.109360	1.058390	0	0	3.732353e+01
74.948723	1.279587	city	10	1	0.925620	0.925620	0	1	0	0	CorrectCommission	1.261418	1.073215	0	0	3.747059e+01
76.248283	1.319532	city	8	1	0.902381	0.902381	0	1	0	0	CorrectCommission	1.351513	1.086738	0	0	3.761765e+01
77.547852	1.279605	city	6	1	1.471169	1.471169	0	1	0	0	CorrectCommission	0.853564	1.097530	0	0	3.776471e+01
78.827393	1.279476	city	3	1	1.293385	1.293385	0	1	0	0	CorrectCommission	0.164332	1.103954	0	0	3.791176e+01
80.106987	1.279711	city	4	1	1.818058	1.818058	0	1	0	0	CorrectCommission	2.198384	1.104369	0	0	3.805882e+01
81.399864	1.306052	city	10	1	1.664500	1.664500	0	1	0	0	CorrectCommission	1.603069	1.097277	0	0	3.820588e+01
82.706085	1.306395	city	4	0	0.000000	1.210890	0	0	0	1	OmissionError	0.155486	1.081636	0	0	3.835294e+01
84.005745	1.292911	city	10	1	0.809627	0.809627	0	1	0	0	CorrectCommission	1.711100	1.056976	0	0	3.850000e+01
85.291985	1.279582	city	4	1	0.813112	0.813112	0	1	0	0	CorrectCommission	1.697589	1.023434	0	0	3.864706e+01
86.571579	1.279594	city	1	1	1.704438	1.704438	0	1	0	0	CorrectCommission	1.757903	0.981858	0	0	3.879412e+01
87.864494	1.306239	city	6	1	1.505442	1.505442	0	1	0	0	CorrectCommission	0.986433	0.933676	0	0	3.894118e+01
89.164024	1.292819	city	9	1	1.353487	1.353487	0	1	0	0	CorrectCommission	0.397337	0.880818	0	0	3.908824e+01
90.463585	1.306313	city	1	1	1.164829	1.164829	0	1	0	0	CorrectCommission	0.334053	0.825488	0	0	3.923529e+01
91.756531	1.279573	mountain	10	1	1.125229	1.125229	0	0	1	0	CommissionError	0.487574	0.769965	0	0	3.938235e+01
93.036110	1.279580	city	8	1	1.473488	1.473488	0	1	0	0	CorrectCommission	0.862555	0.716433	1	0	3.952941e+01
94.328957	1.306119	city	10	1	1.408628	1.408628	0	1	0	0	CorrectCommission	0.611107	0.666844	1	0	3.967647e+01
95.661865	1.359694	city	3	1	1.385616	1.385616	0	1	0	0	CorrectCommission	0.521891	0.622827	1	0	3.982353e+01
97.008141	1.332867	city	5	1	1.145177	1.145177	0	1	0	0	CorrectCommission	0.410240	0.585597	1	0	3.997059e+01
98.314308	1.279460	city	9	1	0.964470	0.964470	0	1	0	0	CorrectCommission	1.110804	0.555942	1	0	4.011765e+01
99.600471	1.292865	city	1	1	1.192912	1.192912	0	1	0	0	CorrectCommission	0.225183	0.534143	1	0	4.026471e+01
100.913437	1.333070	city	4	1	1.213274	1.213274	0	1	0	0	CorrectCommission	0.146241	0.519991	1	0	4.041176e+01
102.226341	1.292738	city	5	1	1.145153	1.145153	0	1	0	0	CorrectCommission	0.410335	0.512743	1	0	4.055882e+01
103.559151	1.372885	city	3	1	1.243432	1.243432	0	1	0	0	CorrectCommission	0.029325	0.511153	1	0	4.070588e+01
104.912033	1.332881	city	1	1	1.187547	1.187547	0	1	0	0	CorrectCommission	0.245982	0.513614	1	0	4.085294e+01
107.824402	4.491859	break	0	1	1.276431	1.276431	0	0	0	0	ThoughtProbe	0.098606	0.518323	1	41	41
110.723457	1.306237	mountain	9	0	0.000000	1.409585	1	0	0	0	CorrectOmission	0.614815	0.523569	1	0	4.102500e+01
112.029701	1.306255	mountain	6	0	0.000000	1.537824	1	0	0	0	CorrectOmission	1.111974	0.527932	1	0	4.105000e+01
113.329269	1.292888	city	1	1	1.611966	1.611966	0	1	0	0	CorrectCommission	1.399407	0.530576	1	0	4.107500e+01
114.628838	1.306245	city	8	1	1.582828	1.582828	0	1	0	0	CorrectCommission	1.286443	0.531386	1	0	4.110000e+01
115.948456	1.332990	city	10	1	1.304667	1.304667	0	1	0	0	CorrectCommission	0.208072	0.530900	1	0	4.112500e+01
117.288010	1.346122	city	8	1	1.387420	1.387420	0	1	0	0	CorrectCommission	0.528885	0.530192	1	0	4.115000e+01
118.660843	1.399536	city	4	1	1.233511	1.233511	0	1	0	0	CorrectCommission	0.067788	0.530503	1	0	4.117500e+01
120.000305	1.279400	city	9	1	1.310332	1.310332	0	1	0	0	CorrectCommission	0.230030	0.532951	1	0	4.120000e+01
121.293266	1.306508	city	1	1	1.235754	1.235754	0	1	0	0	CorrectCommission	0.059092	0.538170	1	0	4.122500e+01
122.652908	1.412784	city	5	1	1.262220	1.262220	0	1	0	0	CorrectCommission	0.043511	0.546092	1	0	4.125000e+01
124.019081	1.319560	city	7	1	1.161696	1.161696	0	1	0	0	CorrectCommission	0.346200	0.555901	1	0	4.127500e+01
125.332001	1.306280	city	1	1	1.263694	1.263694	0	1	0	0	CorrectCommission	0.049227	0.566149	1	0	4.130000e+01
126.624916	1.279550	city	4	1	1.633018	1.633018	0	1	0	0	CorrectCommission	1.481021	0.575070	1	0	4.132500e+01
127.911156	1.292925	city	5	1	1.630934	1.630934	0	1	0	0	CorrectCommission	1.472943	0.580877	1	0	4.135000e+01
129.210724	1.306215	city	9	1	1.529412	1.529412	0	1	0	0	CorrectCommission	1.079360	0.582176	1	0	4.137500e+01
130.503693	1.279732	city	8	1	1.523540	1.523540	0	1	0	0	CorrectCommission	1.056595	0.578190	1	0	4.140000e+01
131.796600	1.306069	city	9	1	1.274783	1.274783	0	1	0	0	CorrectCommission	0.092215	0.568884	1	0	4.142500e+01
133.096085	1.292912	city	4	1	1.138206	1.138206	0	1	0	0	CorrectCommission	0.437264	0.554963	1	0	4.145000e+01
134.395660	1.306245	city	3	1	1.170685	1.170685	0	1	0	0	CorrectCommission	0.311352	0.537679	1	0	4.147500e+01
135.688644	1.279706	city	8	1	1.130101	1.130101	0	1	0	0	CorrectCommission	0.468686	0.518673	1	0	4.150000e+01
136.968216	1.279448	city	5	1	1.313208	1.313208	0	1	0	0	CorrectCommission	0.241182	0.499731	1	0	4.152500e+01
138.247726	1.279578	city	7	1	1.444069	1.444069	0	1	0	0	CorrectCommission	0.748505	0.482592	1	0	4.155000e+01
139.534058	1.293072	city	1	1	1.376427	1.376427	0	1	0	0	CorrectCommission	0.486271	0.468791	1	0	4.157500e+01
140.826965	1.292743	city	3	1	1.216434	1.216434	0	1	0	0	CorrectCommission	0.133993	0.459602	1	0	4.160000e+01
142.119919	1.293162	city	1	1	1.402725	1.402725	0	1	0	0	CorrectCommission	0.588220	0.456027	1	0	4.162500e+01
143.452866	1.372727	city	7	1	1.247969	1.247969	0	1	0	0	CorrectCommission	0.011735	0.458741	1	0	4.165000e+01
144.792282	1.306129	mountain	8	0	0.000000	1.380463	1	0	0	0	CorrectOmission	0.501916	0.468178	1	0	4.167500e+01
146.085236	1.279769	city	4	1	1.468731	1.468731	0	1	0	0	CorrectCommission	0.844113	0.484425	1	0	4.170000e+01
147.391571	1.332906	city	2	1	1.181299	1.181299	0	1	0	0	CorrectCommission	0.270204	0.507249	1	0	4.172500e+01
148.697815	1.279570	city	9	1	1.175941	1.175941	0	1	0	0	CorrectCommission	0.290975	0.536051	1	0	4.175000e+01
150.003952	1.332709	city	7	1	1.289144	1.289144	0	1	0	0	CorrectCommission	0.147890	0.569804	1	0	4.177500e+01
151.316757	1.292911	city	9	1	1.152724	1.152724	0	1	0	0	CorrectCommission	0.380982	0.607047	1	0	4.180000e+01
152.609756	1.293084	city	7	1	1.091603	1.091603	0	1	0	0	CorrectCommission	0.617937	0.645915	1	0	4.182500e+01
153.902756	1.292902	city	2	1	1.074370	1.074370	0	1	0	0	CorrectCommission	0.684747	0.684255	1	0	4.185000e+01
155.188995	1.279572	city	9	1	0.931004	0.931004	0	1	0	0	CorrectCommission	1.240546	0.719772	1	0	4.187500e+01
156.481857	1.306173	city	3	1	0.994394	0.994394	0	1	0	0	CorrectCommission	0.994798	0.750240	1	0	4.190000e+01
157.774704	1.279494	city	2	1	1.051343	1.051343	0	1	0	0	CorrectCommission	0.774015	0.773751	0	0	4.192500e+01
159.060974	1.293070	city	7	1	1.085159	1.085159	0	1	0	0	CorrectCommission	0.642918	0.788910	0	0	4.195000e+01
160.360611	1.306202	city	9	1	0.986683	0.986683	0	1	0	0	CorrectCommission	1.024690	0.795015	0	0	4.197500e+01
163.093048	4.158652	break	0	1	0.804982	0.804982	0	0	0	0	ThoughtProbe	1.729109	0.792126	0	42	42
165.812164	1.279603	city	4	1	1.544557	1.544557	0	1	0	0	CorrectCommission	1.138076	0.781083	0	0	4.232609e+01
167.105011	1.306077	city	6	1	1.449922	1.449922	0	1	0	0	CorrectCommission	0.771193	0.763435	0	0	4.265217e+01
168.431168	1.346252	city	2	1	1.206619	1.206619	0	1	0	0	CorrectCommission	0.172041	0.741239	1	0	4.297826e+01
169.750809	1.293020	city	10	1	0.964736	0.964736	0	1	0	0	CorrectCommission	1.109774	0.716865	1	0	4.330435e+01
171.037109	1.279575	city	7	1	1.285081	1.285081	0	1	0	0	CorrectCommission	0.132137	0.692708	1	0	4.363043e+01
172.316666	1.279531	city	4	1	1.458837	1.458837	0	1	0	0	CorrectCommission	0.805754	0.671029	1	0	4.395652e+01
173.609497	1.306139	city	7	1	1.278041	1.278041	0	1	0	0	CorrectCommission	0.104847	0.653700	1	0	4.428261e+01
174.902374	1.279613	mountain	3	0	0.000000	1.346248	1	0	0	0	CorrectOmission	0.369271	0.642170	1	0	4.460870e+01
176.182037	1.279721	city	10	1	1.477527	1.477527	0	1	0	0	CorrectCommission	0.878212	0.637346	1	0	4.493478e+01
177.475006	1.306213	city	1	1	1.485947	1.485947	0	1	0	0	CorrectCommission	0.910857	0.639623	1	0	4.526087e+01
178.781235	1.306232	city	5	1	1.380973	1.380973	0	1	0	0	CorrectCommission	0.503894	0.648959	1	0	4.558696e+01
180.080795	1.292913	mountain	2	0	0.000000	1.362475	1	0	0	0	CorrectOmission	0.432181	0.664925	1	0	4.591304e+01
181.367035	1.279545	city	6	1	1.303309	1.303309	0	1	0	0	CorrectCommission	0.202807	0.686756	1	0	4.623913e+01
182.646622	1.279623	city	1	1	1.076331	1.076331	0	1	0	0	CorrectCommission	0.677143	0.713401	1	0	4.656522e+01
183.926224	1.279589	city	6	1	1.045826	1.045826	0	1	0	0	CorrectCommission	0.795406	0.743585	1	0	4.689130e+01
185.232422	1.332803	mountain	4	1	1.060627	1.060627	0	0	1	0	CommissionError	0.738023	0.775871	0	0	4.721739e+01
186.538605	1.279576	city	7	1	1.472025	1.472025	0	1	0	0	CorrectCommission	0.856881	0.808734	0	0	4.754348e+01
187.838211	1.319638	city	2	1	1.505691	1.505691	0	1	0	0	CorrectCommission	0.987401	0.840604	0	0	4.786957e+01
189.137833	1.279602	city	1	1	1.525630	1.525630	0	1	0	0	CorrectCommission	1.064700	0.869966	0	0	4.819565e+01
190.430664	1.306072	city	9	1	1.602075	1.602075	0	1	0	0	CorrectCommission	1.361061	0.895409	0	0	4.852174e+01
191.723572	1.279719	city	8	1	1.470709	1.470709	0	1	0	0	CorrectCommission	0.851783	0.915684	0	0	4.884783e+01
193.036545	1.346243	city	6	1	1.292082	1.292082	0	1	0	0	CorrectCommission	0.159281	0.929783	0	0	4.917391e+01
194.356033	1.292723	city	2	1	1.510867	1.510867	0	1	0	0	CorrectCommission	1.007466	0.937002	0	0	4.950000e+01
195.688843	1.372909	city	7	1	1.622292	1.622292	0	1	0	0	CorrectCommission	1.439440	0.936977	0	0	4.982609e+01
197.035156	1.319708	city	3	1	1.538382	1.538382	0	1	0	0	CorrectCommission	1.114135	0.929786	0	0	5.015217e+01
198.334793	1.279578	city	5	1	1.675908	1.675908	0	1	0	0	CorrectCommission	1.647295	0.915939	0	0	5.047826e+01
199.627670	1.306170	city	1	1	1.652252	1.652252	0	1	0	0	CorrectCommission	1.555588	0.896345	0	0	5.080435e+01
200.927170	1.292828	mountain	4	0	0.000000	1.462388	1	0	0	0	CorrectOmission	0.819524	0.872213	0	0	5.113043e+01
202.213364	1.279561	city	9	1	1.250740	1.250740	0	1	0	0	CorrectCommission	0.000995	0.844938	0	0	5.145652e+01
203.506363	1.306450	city	6	1	1.161730	1.161730	0	1	0	0	CorrectCommission	0.346066	0.815913	0	0	5.178261e+01
204.845993	1.372790	city	7	1	1.108049	1.108049	0	1	0	0	CorrectCommission	0.554179	0.786340	0	0	5.210870e+01
206.178833	1.292888	city	5	1	0.974507	0.974507	0	1	0	0	CorrectCommission	1.071894	0.757170	1	0	5.243478e+01
207.491745	1.332955	city	6	1	1.105534	1.105534	0	1	0	0	CorrectCommission	0.563928	0.729047	1	0	5.276087e+01
208.811340	1.306236	city	9	1	0.929209	0.929209	0	1	0	0	CorrectCommission	1.247505	0.702365	1	0	5.308696e+01
210.117493	1.306070	city	1	1	1.103448	1.103448	0	1	0	0	CorrectCommission	0.572014	0.677286	1	0	5.341304e+01
211.443741	1.346413	city	6	1	0.961611	0.961611	0	1	0	0	CorrectCommission	1.121890	0.653855	1	0	5.373913e+01
212.770065	1.306242	city	5	1	1.264953	1.264953	0	1	0	0	CorrectCommission	0.054107	0.632013	1	0	5.406522e+01
214.062973	1.279574	city	8	1	1.381204	1.381204	0	1	0	0	CorrectCommission	0.504789	0.611712	1	0	5.439130e+01
215.369217	1.332893	city	4	1	1.345211	1.345211	0	1	0	0	CorrectCommission	0.365253	0.592828	1	0	5.471739e+01
216.682114	1.292906	city	6	1	1.386464	1.386464	0	1	0	0	CorrectCommission	0.525180	0.575229	1	0	5.504348e+01
217.975021	1.292914	city	1	1	1.029628	1.029628	0	1	0	0	CorrectCommission	0.858201	0.558810	1	0	5.536957e+01
219.261215	1.279491	city	7	1	1.386257	1.386257	0	1	0	0	CorrectCommission	0.524378	0.543463	1	0	5.569565e+01
220.547470	1.292997	city	10	1	1.355744	1.355744	0	1	0	0	CorrectCommission	0.406084	0.529146	1	0	5.602174e+01
221.853653	1.319390	city	4	1	1.447584	1.447584	0	1	0	0	CorrectCommission	0.762129	0.515919	1	0	5.634783e+01
223.153229	1.279753	city	5	1	1.422927	1.422927	0	1	0	0	CorrectCommission	0.666539	0.503986	1	0	5.667391e+01
226.718719	5.851223	break	0	1	1.197651	1.197651	0	0	0	0	ThoughtProbe	0.206809	0.493733	1	57	57
230.297470	1.306276	city	9	1	1.275190	1.275190	0	1	0	0	CorrectCommission	0.093792	0.485781	1	0	5.682353e+01
231.610458	1.319691	city	4	1	1.141635	1.141635	0	1	0	0	CorrectCommission	0.423971	0.480956	1	0	5.664706e+01
232.923416	1.306245	city	8	1	1.040067	1.040067	0	1	0	0	CorrectCommission	0.817729	0.480248	1	0	5.647059e+01
234.236252	1.319412	city	1	1	1.084300	1.084300	0	1	0	0	CorrectCommission	0.646249	0.484746	1	0	5.629412e+01
235.535736	1.279559	city	5	1	1.099881	1.099881	0	1	0	0	CorrectCommission	0.585843	0.495530	1	0	5.611765e+01
236.828659	1.306293	city	2	1	1.228196	1.228196	0	1	0	0	CorrectCommission	0.088391	0.513464	1	0	5.594118e+01
238.141647	1.319693	city	6	1	1.173863	1.173863	0	1	0	0	CorrectCommission	0.299033	0.539006	1	0	5.576471e+01
239.454559	1.306115	mountain	10	1	1.162750	1.162750	0	0	1	0	CommissionError	0.342113	0.572005	1	0	5.558824e+01
240.747452	1.279684	city	9	1	1.315385	1.315385	0	1	0	0	CorrectCommission	0.249620	0.611589	1	0	5.541176e+01
242.053726	1.332864	city	8	1	1.188407	1.188407	0	1	0	0	CorrectCommission	0.242646	0.656108	1	0	5.523529e+01
243.373215	1.306110	city	3	1	0.980279	0.980279	0	1	0	0	CorrectCommission	1.049515	0.703225	1	0	5.505882e+01
244.692795	1.333055	city	2	1	1.234029	1.234029	0	1	0	0	CorrectCommission	0.065778	0.750094	1	0	5.488235e+01
245.999039	1.279422	city	3	1	1.252451	1.252451	0	1	0	0	CorrectCommission	0.005638	0.793749	0	0	5.470588e+01
247.285278	1.293065	city	2	1	1.913398	1.913398	0	1	0	0	CorrectCommission	2.567998	0.831377	0	0	5.452941e+01
248.571609	1.279597	city	6	1	1.841226	1.841226	0	1	0	0	CorrectCommission	2.288203	0.860662	0	0	5.435294e+01
249.864517	1.306218	mountain	10	0	0.000000	1.538244	1	0	0	0	CorrectOmission	1.113601	0.880131	0	0	5.417647e+01
251.164093	1.292939	city	2	1	1.328893	1.328893	0	1	0	0	CorrectCommission	0.301989	0.889294	0	0	54
252.456940	1.292730	city	5	1	1.537615	1.537615	0	1	0	0	CorrectCommission	1.111162	0.888619	0	0	5.382353e+01
253.749832	1.293058	city	6	1	1.458266	1.458266	0	1	0	0	CorrectCommission	0.803542	0.879384	0	0	5.364706e+01
255.042816	1.292919	city	8	1	1.435542	1.435542	0	1	0	0	CorrectCommission	0.715444	0.863536	0	0	5.347059e+01
256.348969	1.319410	city	9	1	1.532176	1.532176	0	1	0	0	CorrectCommission	1.090079	0.843397	0	0	5.329412e+01
257.661713	1.306048	city	5	1	1.384562	1.384562	0	1	0	0	CorrectCommission	0.517806	0.821437	0	0	5.311765e+01
258.968018	1.306565	city	6	1	1.367102	1.367102	0	1	0	0	CorrectCommission	0.450117	0.800075	0	0	5.294118e+01
260.261108	1.279604	city	8	1	1.501776	1.501776	0	1	0	0	CorrectCommission	0.972220	0.781491	0	0	5.276471e+01
261.540680	1.279555	city	5	1	1.577848	1.577848	0	1	0	0	CorrectCommission	1.267138	0.767507	0	0	5.258824e+01
262.833496	1.306083	city	9	1	1.429274	1.429274	0	1	0	0	CorrectCommission	0.691148	0.759486	1	0	5.241176e+01
264.152985	1.332897	city	2	1	1.419240	1.419240	0	1	0	0	CorrectCommission	0.652245	0.758283	1	0	5.223529e+01
265.492554	1.346209	city	10	1	1.302730	1.302730	0	1	0	0	CorrectCommission	0.200560	0.764170	0	0	5.205882e+01
266.818817	1.306315	city	4	1	1.209274	1.209274	0	1	0	0	CorrectCommission	0.161748	0.776831	0	0	5.188235e+01
268.138367	1.332816	city	8	1	1.267631	1.267631	0	1	0	0	CorrectCommission	0.064491	0.795405	0	0	5.170588e+01
269.491211	1.372888	city	3	1	1.013296	1.013296	0	1	0	0	CorrectCommission	0.921516	0.818611	0	0	5.152941e+01
270.830872	1.306415	city	7	1	0.858170	0.858170	0	1	0	0	CorrectCommission	1.522908	0.844890	0	0	5.135294e+01
272.150513	1.332896	city	3	1	0.969199	0.969199	0	1	0	0	CorrectCommission	1.092472	0.872589	0	0	5.117647e+01
272.816986	9.330238	break	0	1	0.848130	0.848130	0	0	0	0	ThoughtProbe	1.561834	0.900172	0	51	51
282.806946	1.319460	city	1	1	1.162155	1.162155	0	1	0	0	CorrectCommission	0.344419	0.926328	0	0	5.082500e+01
284.106537	1.279714	city	5	1	0.857583	0.857583	0	1	0	0	CorrectCommission	1.525187	0.950043	0	0	5.065000e+01
285.392822	1.292881	city	6	1	1.510715	1.510715	0	1	0	0	CorrectCommission	1.006877	0.970532	0	0	5.047500e+01
286.719055	1.359582	city	10	1	1.153502	1.153502	0	1	0	0	CorrectCommission	0.377966	0.987321	0	0	5.030000e+01
288.045258	1.292808	city	6	1	1.005255	1.005255	0	1	0	0	CorrectCommission	0.952691	1.000139	0	0	5.012500e+01
289.344818	1.306307	city	3	1	1.050466	1.050466	0	1	0	0	CorrectCommission	0.777416	1.008808	0	0	4.995000e+01
290.644440	1.292933	city	2	1	0.923473	0.923473	0	1	0	0	CorrectCommission	1.269743	1.013328	0	0	4.977500e+01
291.950684	1.319558	city	10	1	0.954742	0.954742	0	1	0	0	CorrectCommission	1.148518	1.013862	0	0	4.960000e+01
293.263580	1.306219	city	2	1	0.927302	0.927302	0	1	0	0	CorrectCommission	1.254899	1.010777	0	0	4.942500e+01
294.563110	1.292865	mountain	8	1	0.724039	0.724039	0	0	1	0	CommissionError	2.042910	1.004649	0	0	4.925000e+01
295.855988	1.292908	city	7	1	1.478312	1.478312	0	1	0	0	CorrectCommission	0.881255	0.996181	0	0	4.907500e+01
297.142273	1.279656	city	6	1	1.473784	1.473784	0	1	0	0	CorrectCommission	0.863702	0.986136	0	0	4.890000e+01
298.428558	1.292922	city	10	1	1.445092	1.445092	0	1	0	0	CorrectCommission	0.752469	0.975102	0	0	4.872500e+01
299.748108	1.346162	city	1	1	1.313072	1.313072	0	1	0	0	CorrectCommission	0.240653	0.963389	0	0	4.855000e+01
301.060974	1.279591	mountain	8	0	0.000000	1.160251	1	0	0	0	CorrectOmission	0.351803	0.950891	0	0	4.837500e+01
302.360565	1.319592	city	9	1	1.007689	1.007689	0	1	0	0	CorrectCommission	0.943256	0.937076	0	0	4.820000e+01
303.673492	1.306238	city	1	1	0.876444	0.876444	0	1	0	0	CorrectCommission	1.452066	0.921066	0	0	4.802500e+01
304.986298	1.319385	city	10	1	0.886127	0.886127	0	1	0	0	CorrectCommission	1.414526	0.901850	0	0	4.785000e+01
306.299194	1.306416	city	6	1	1.048998	1.048998	0	1	0	0	CorrectCommission	0.783109	0.878524	0	0	4.767500e+01
307.605682	1.306555	city	2	1	0.954300	0.954300	0	1	0	0	CorrectCommission	1.150234	0.850531	0	0	4.750000e+01
308.911957	1.305955	city	1	1	0.832787	0.832787	0	1	0	0	CorrectCommission	1.621313	0.817852	0	0	4.732500e+01
310.217957	1.306040	city	8	1	1.215979	1.215979	0	1	0	0	CorrectCommission	0.135756	0.781071	0	0	4.715000e+01
311.530731	1.319556	city	3	1	0.991102	0.991102	0	1	0	0	CorrectCommission	1.007557	0.741444	1	0	4.697500e+01
312.850372	1.319736	city	10	1	0.900364	0.900364	0	1	0	0	CorrectCommission	1.359330	0.700592	1	0	4.680000e+01
314.163361	1.306214	city	6	1	1.250878	1.250878	0	1	0	0	CorrectCommission	0.000459	0.660401	1	0	4.662500e+01
315.469604	1.306263	city	4	1	1.226188	1.226188	0	1	0	0	CorrectCommission	0.096177	0.622806	1	0	4.645000e+01
316.769196	1.292913	city	9	1	1.193302	1.193302	0	1	0	0	CorrectCommission	0.223668	0.589512	1	0	4.627500e+01
318.068665	1.306066	city	3	1	1.341266	1.341266	0	1	0	0	CorrectCommission	0.349956	0.561917	1	0	4.610000e+01
319.368256	1.293075	mountain	8	0	0.000000	1.405025	1	0	0	0	CorrectOmission	0.597137	0.541035	1	0	4.592500e+01
320.654572	1.279574	city	3	1	1.425723	1.425723	0	1	0	0	CorrectCommission	0.677380	0.527575	1	0	4.575000e+01
321.940735	1.292749	city	8	1	1.444504	1.444504	0	1	0	0	CorrectCommission	0.750189	0.522050	1	0	4.557500e+01
323.246887	1.319552	city	3	1	1.275963	1.275963	0	1	0	0	CorrectCommission	0.096789	0.524888	1	0	4.540000e+01
324.566437	1.319574	city	1	1	1.038070	1.038070	0	1	0	0	CorrectCommission	0.825473	0.536579	1	0	4.522500e+01
325.872772	1.293055	city	2	1	1.228867	1.228867	0	1	0	0	CorrectCommission	0.085791	0.557658	1	0	4.505000e+01
327.159027	1.279469	city	7	1	1.365193	1.365193	0	1	0	0	CorrectCommission	0.442716	0.588702	1	0	4.487500e+01
328.438599	1.279690	city	4	1	1.372466	1.372466	0	1	0	0	CorrectCommission	0.470911	0.630165	1	0	4.470000e+01
329.724915	1.292929	city	6	1	1.447065	1.447065	0	1	0	0	CorrectCommission	0.760120	0.682161	1	0	4.452500e+01
331.051117	1.359459	city	4	1	1.431795	1.431795	0	1	0	0	CorrectCommission	0.700921	0.744213	1	0	4.435000e+01
332.403900	1.346130	city	8	1	1.295545	1.295545	0	1	0	0	CorrectCommission	0.172707	0.815014	0	0	4.417500e+01
335.736237	5.318529	break	0	0	0.000000	1.110240	0	0	0	0	ThoughtProbe	0.545684	0.892259	0	44	44
339.048584	1.306151	city	9	1	1.154544	1.154544	0	1	0	0	CorrectCommission	0.373925	0.972582	0	0	4.404348e+01
340.354675	1.306071	city	4	1	1.707123	1.707123	0	1	0	0	CorrectCommission	1.768310	1.051660	0	0	4.408696e+01
341.647583	1.279744	mountain	3	0	0.000000	1.448218	1	0	0	0	CorrectOmission	0.764587	1.124441	0	0	4.413043e+01
342.933746	1.292565	city	3	1	0.969687	0.969687	0	1	0	0	CorrectCommission	1.090580	1.185701	0	0	4.417391e+01
344.239960	1.319877	mountain	10	1	0.863388	0.863388	0	0	1	0	CommissionError	1.502679	1.230508	0	0	4.421739e+01
345.579681	1.359576	city	8	1	1.813947	1.813947	0	1	0	0	CorrectCommission	2.182448	1.254858	0	0	4.426087e+01
346.925903	1.332873	city	9	1	1.984884	1.984884	0	1	0	0	CorrectCommission	2.845134	1.256229	0	0	4.430435e+01
348.252106	1.319488	city	7	1	1.779600	1.779600	0	1	0	0	CorrectCommission	2.049291	1.233992	0	0	4.434783e+01
349.558350	1.293003	city	6	1	1.690690	1.690690	0	1	0	0	CorrectCommission	1.704604	1.189615	0	0	4.439130e+01
350.857880	1.306075	city	8	1	1.646422	1.646422	0	1	0	0	CorrectCommission	1.532984	1.126562	0	0	4.443478e+01
352.170776	1.319719	mountain	8	0	0.000000	1.539469	1	0	0	0	CorrectOmission	1.118349	1.049951	0	0	4.447826e+01
353.477081	1.292881	city	4	1	1.380119	1.380119	0	1	0	0	CorrectCommission	0.500584	0.966024	0	0	4.452174e+01
354.783325	1.319619	city	9	1	1.178662	1.178662	0	1	0	0	CorrectCommission	0.280427	0.881446	0	0	4.456522e+01
356.089478	1.292709	city	7	1	1.280411	1.280411	0	1	0	0	CorrectCommission	0.114034	0.802609	0	0	4.460870e+01
357.388977	1.306274	city	10	1	1.054734	1.054734	0	1	0	0	CorrectCommission	0.760872	0.734956	1	0	4.465217e+01
358.695312	1.306370	city	9	1	1.223023	1.223023	0	1	0	0	CorrectCommission	0.108447	0.682458	1	0	4.469565e+01
359.988281	1.279607	city	4	1	1.381854	1.381854	0	1	0	0	CorrectCommission	0.507309	0.647300	1	0	4.473913e+01
361.307861	1.359528	city	2	1	1.179682	1.179682	0	1	0	0	CorrectCommission	0.276474	0.629696	1	0	4.478261e+01
362.653992	1.332726	city	9	1	1.221017	1.221017	0	1	0	0	CorrectCommission	0.116226	0.627970	1	0	4.482609e+01
363.980225	1.319746	city	7	1	1.156988	1.156988	0	1	0	0	CorrectCommission	0.364451	0.638801	1	0	4.486957e+01
365.279816	1.279445	city	10	1	1.286343	1.286343	0	1	0	0	CorrectCommission	0.137032	0.657654	1	0	4.491304e+01
366.559326	1.279552	city	3	1	1.177575	1.177575	0	1	0	0	CorrectCommission	0.284640	0.679356	1	0	4.495652e+01
367.838928	1.279663	city	8	1	1.388139	1.388139	0	1	0	0	CorrectCommission	0.531676	0.698730	1	0	45
369.138580	1.319649	mountain	2	0	0.000000	1.731145	1	0	0	0	CorrectOmission	1.861441	0.711226	1	0	4.504348e+01
370.438171	1.279551	city	3	1	1.902615	1.902615	0	1	0	0	CorrectCommission	2.526194	0.713486	1	0	4.508696e+01
371.737762	1.319592	city	5	1	1.598569	1.598569	0	1	0	0	CorrectCommission	1.347468	0.703727	1	0	4.513043e+01
373.050598	1.306076	city	7	1	1.514834	1.514834	0	1	0	0	CorrectCommission	1.022844	0.681892	1	0	4.517391e+01
374.370148	1.333040	city	5	1	1.347809	1.347809	0	1	0	0	CorrectCommission	0.375323	0.649484	1	0	4.521739e+01
375.689697	1.306093	city	2	1	1.311723	1.311723	0	1	0	0	CorrectCommission	0.235427	0.609208	1	0	4.526087e+01
376.982544	1.279553	city	4	1	1.192091	1.192091	0	1	0	0	CorrectCommission	0.228365	0.564519	1	0	4.530435e+01
378.275482	1.306334	city	8	1	1.321505	1.321505	0	1	0	0	CorrectCommission	0.273346	0.519068	1	0	4.534783e+01
379.621796	1.386302	city	10	1	1.250822	1.250822	0	1	0	0	CorrectCommission	0.000676	0.476271	1	0	4.539130e+01
380.987976	1.346051	city	8	1	1.302909	1.302909	0	1	0	0	CorrectCommission	0.201253	0.438959	1	0	4.543478e+01
382.300873	1.279735	city	4	1	1.400311	1.400311	0	1	0	0	CorrectCommission	0.578863	0.409209	1	0	4.547826e+01
383.613770	1.346055	city	10	1	1.189488	1.189488	0	1	0	0	CorrectCommission	0.238456	0.388297	1	0	4.552174e+01
384.926575	1.279596	city	4	1	1.337290	1.337290	0	1	0	0	CorrectCommission	0.334544	0.376853	1	0	4.556522e+01
386.239502	1.346256	city	7	1	1.381564	1.381564	0	1	0	0	CorrectCommission	0.506185	0.374949	1	0	4.560870e+01
387.565826	1.306352	city	4	1	1.287932	1.287932	0	1	0	0	CorrectCommission	0.143190	0.382304	1	0	4.565217e+01
388.865417	1.292842	city	6	1	1.191868	1.191868	0	1	0	0	CorrectCommission	0.229230	0.398409	1	0	4.569565e+01
390.184967	1.346291	city	5	1	1.262266	1.262266	0	1	0	0	CorrectCommission	0.043688	0.422559	1	0	4.573913e+01
391.504578	1.292916	city	6	1	1.439770	1.439770	0	1	0	0	CorrectCommission	0.731838	0.453921	1	0	4.578261e+01
392.804169	1.306240	city	10	1	1.341776	1.341776	0	1	0	0	CorrectCommission	0.351935	0.491446	1	0	4.582609e+01
394.110321	1.306061	city	5	1	1.138035	1.138035	0	1	0	0	CorrectCommission	0.437927	0.533898	1	0	4.586957e+01
395.409851	1.293002	city	6	1	1.215559	1.215559	0	1	0	0	CorrectCommission	0.137385	0.579756	1	0	4.591304e+01
396.702850	1.292994	city	10	1	1.101923	1.101923	0	1	0	0	CorrectCommission	0.577927	0.627236	1	0	4.595652e+01
400.095032	5.491366	break	0	1	1.076693	1.076693	0	0	0	0	ThoughtProbe	0.675738	0.674320	1	46	46
403.520569	1.359749	city	1	1	1.636503	1.636503	0	1	0	0	CorrectCommission	1.494531	0.718868	1	0	4.591176e+01
404.880188	1.359468	city	10	1	1.160069	1.160069	0	1	0	0	CorrectCommission	0.352508	0.758786	1	0	4.582353e+01
406.206390	1.292940	city	4	1	1.022852	1.022852	0	1	0	0	CorrectCommission	0.884471	0.792240	0	0	4.573529e+01
407.499268	1.292842	city	6	1	1.144982	1.144982	0	1	0	0	CorrectCommission	0.410998	0.817776	0	0	4.564706e+01
408.785522	1.279647	city	3	1	0.773310	0.773310	0	1	0	0	CorrectCommission	1.851894	0.834530	0	0	4.555882e+01
410.085144	1.319579	city	4	1	1.672089	1.672089	0	1	0	0	CorrectCommission	1.632491	0.842256	0	0	4.547059e+01
411.411346	1.332866	mountain	4	0	0.000000	1.627957	1	0	0	0	CorrectOmission	1.461399	0.841410	0	0	4.538235e+01
412.724243	1.292901	city	4	1	1.236466	1.236466	0	1	0	0	CorrectCommission	0.056333	0.833059	0	0	4.529412e+01
414.030487	1.319605	city	6	1	1.093168	1.093168	0	1	0	0	CorrectCommission	0.611869	0.818777	0	0	4.520588e+01
415.343353	1.306101	city	10	1	1.103558	1.103558	0	1	0	0	CorrectCommission	0.571588	0.800435	0	0	4.511765e+01
416.649567	1.306361	city	9	1	1.063096	1.063096	0	1	0	0	CorrectCommission	0.728453	0.780090	0	0	4.502941e+01
417.955872	1.306231	city	2	1	0.877973	0.877973	0	1	0	0	CorrectCommission	1.446136	0.759771	0	0	4.494118e+01
419.262115	1.306246	city	3	1	1.220171	1.220171	0	1	0	0	CorrectCommission	0.119505	0.741368	1	0	4.485294e+01
420.561707	1.292925	city	8	1	1.071812	1.071812	0	1	0	0	CorrectCommission	0.694664	0.726621	1	0	4.476471e+01
421.854523	1.292742	city	9	1	1.357264	1.357264	0	1	0	0	CorrectCommission	0.411978	0.716920	1	0	4.467647e+01
423.174011	1.346225	city	7	1	1.596657	1.596657	0	1	0	0	CorrectCommission	1.340057	0.713316	1	0	4.458824e+01
424.500336	1.306382	mountain	9	0	0.000000	1.473880	1	0	0	0	CorrectOmission	0.864073	0.716437	1	0	4.450000e+01
425.793304	1.279589	city	10	1	1.289784	1.289784	0	1	0	0	CorrectCommission	0.150373	0.726487	1	0	4.441176e+01
427.092834	1.319459	city	8	1	1.345224	1.345224	0	1	0	0	CorrectCommission	0.365300	0.743164	1	0	4.432353e+01
428.432281	1.359419	city	7	1	1.284814	1.284814	0	1	0	0	CorrectCommission	0.131103	0.765707	0	0	4.423529e+01
429.765137	1.306308	city	2	1	1.167490	1.167490	0	1	0	0	CorrectCommission	0.323737	0.792986	0	0	4.414706e+01
431.064789	1.292996	city	3	1	1.012764	1.012764	0	1	0	0	CorrectCommission	0.923580	0.823637	0	0	4.405882e+01
432.371094	1.319638	city	9	1	0.946282	0.946282	0	1	0	0	CorrectCommission	1.181316	0.856268	0	0	4.397059e+01
433.704041	1.346220	city	1	1	0.818069	0.818069	0	1	0	0	CorrectCommission	1.678375	0.889700	0	0	4.388235e+01
435.036926	1.319569	city	4	1	1.695844	1.695844	0	1	0	0	CorrectCommission	1.724586	0.923092	0	0	4.379412e+01
436.336426	1.279442	city	10	1	1.542485	1.542485	0	1	0	0	CorrectCommission	1.130041	0.956030	0	0	4.370588e+01
437.642670	1.333049	city	2	1	1.353337	1.353337	0	1	0	0	CorrectCommission	0.396754	0.988491	0	0	4.361765e+01
438.982269	1.346158	city	3	1	1.219500	1.219500	0	1	0	0	CorrectCommission	0.122104	1.020721	0	0	4.352941e+01
440.321747	1.332784	city	10	1	1.060168	1.060168	0	1	0	0	CorrectCommission	0.739803	1.053037	0	0	4.344118e+01
441.641327	1.306395	city	4	1	1.726050	1.726050	0	1	0	0	CorrectCommission	1.841688	1.085645	0	0	4.335294e+01
442.960907	1.332743	city	8	1	1.382115	1.382115	0	1	0	0	CorrectCommission	0.508320	1.118437	0	0	4.326471e+01
444.300476	1.346375	city	2	1	1.052256	1.052256	0	1	0	0	CorrectCommission	0.770475	1.150981	0	0	4.317647e+01
445.620117	1.292910	city	4	1	0.593325	0.593325	0	1	0	0	CorrectCommission	2.549660	1.182432	0	0	4.308824e+01
449.652039	6.770944	break	0	0	0.000000	0.863249	0	0	0	0	ThoughtProbe	1.503219	1.211570	0	43	43
453.697388	1.319745	city	6	1	1.185868	1.185868	0	1	0	0	CorrectCommission	0.252490	1.237046	0	0	4.295000e+01
455.023621	1.332722	city	5	1	0.885022	0.885022	0	1	0	0	CorrectCommission	1.418810	1.257446	0	0	4.290000e+01
456.363190	1.346400	city	4	1	1.701286	1.701286	0	1	0	0	CorrectCommission	1.745683	1.271477	0	0	4.285000e+01
457.709473	1.346211	city	2	1	1.126569	1.126569	0	1	0	0	CorrectCommission	0.482379	1.278234	0	0	4.280000e+01
459.035614	1.306073	city	4	1	0.849007	0.849007	0	1	0	0	CorrectCommission	1.558433	1.277474	0	0	4.275000e+01
460.368530	1.359724	mountain	6	1	0.704908	0.704908	0	0	1	0	CommissionError	2.117077	1.269767	0	0	4.270000e+01
461.714813	1.332875	city	8	1	0.885118	0.885118	0	1	0	0	CorrectCommission	1.418436	1.256617	0	0	4.265000e+01
463.027710	1.292931	city	5	1	0.757554	0.757554	0	1	0	0	CorrectCommission	1.912976	1.240511	0	0	4.260000e+01
464.333984	1.319562	city	10	1	0.783896	0.783896	0	1	0	0	CorrectCommission	1.810856	1.224654	0	0	4.255000e+01
465.653473	1.319435	city	8	1	1.620992	1.620992	0	1	0	0	CorrectCommission	1.434399	1.212652	0	0	4.250000e+01
466.979614	1.332843	city	10	1	1.253460	1.253460	0	1	0	0	CorrectCommission	0.009549	1.207951	0	0	4.245000e+01
468.312561	1.333051	city	9	1	1.244731	1.244731	0	1	0	0	CorrectCommission	0.024292	1.213354	0	0	4.240000e+01
469.625549	1.292916	city	10	1	1.210028	1.210028	0	1	0	0	CorrectCommission	0.158828	1.230415	0	0	4.235000e+01
470.931702	1.319412	city	2	1	0.948211	0.948211	0	1	0	0	CorrectCommission	1.173838	1.259187	0	0	4.230000e+01
472.237854	1.292910	mountain	9	1	0.819220	0.819220	0	0	1	0	CommissionError	1.673912	1.298030	0	0	4.225000e+01
473.544189	1.319724	city	1	1	0.964168	0.964168	0	1	0	0	CorrectCommission	1.111975	1.343796	0	0	4.220000e+01
474.877106	1.346145	city	7	1	0.955235	0.955235	0	1	0	0	CorrectCommission	1.146606	1.392246	0	0	4.215000e+01
476.203369	1.306333	city	5	1	0.890525	0.890525	0	1	0	0	CorrectCommission	1.397475	1.438544	0	0	4.210000e+01
477.529633	1.346204	city	10	1	0.803029	0.803029	0	1	0	0	CorrectCommission	1.736681	1.477956	0	0	4.205000e+01
478.882477	1.359500	city	3	1	0.607493	0.607493	0	1	0	0	CorrectCommission	2.494735	1.506489	0	0	42
480.221954	1.319491	city	4	1	0.612604	0.612604	0	1	0	0	CorrectCommission	2.474920	1.521376	0	0	4.195000e+01
481.541565	1.319729	city	8	1	0.683954	0.683954	0	1	0	0	CorrectCommission	2.198311	1.521457	0	0	4.190000e+01
482.841217	1.279538	city	9	1	1.745846	1.745846	0	1	0	0	CorrectCommission	1.918431	1.507258	0	0	4.185000e+01
484.147430	1.332916	city	7	1	1.645819	1.645819	0	1	0	0	CorrectCommission	1.530650	1.480781	0	0	4.180000e+01
485.500336	1.372881	city	8	1	1.719102	1.719102	0	1	0	0	CorrectCommission	1.814752	1.445197	0	0	4.175000e+01
486.866577	1.359569	city	10	1	1.196585	1.196585	0	1	0	0	CorrectCommission	0.210944	1.404458	0	0	4.170000e+01
488.199463	1.306201	city	7	1	1.064661	1.064661	0	1	0	0	CorrectCommission	0.722385	1.362849	0	0	4.165000e+01
489.505676	1.306241	mountain	5	0	0.000000	1.507256	1	0	0	0	CorrectOmission	0.993467	1.324552	0	0	4.160000e+01
490.811829	1.306083	city	9	1	1.827556	1.827556	0	1	0	0	CorrectCommission	2.235207	1.293524	0	0	4.155000e+01
492.144653	1.359535	city	5	1	1.328749	1.328749	0	1	0	0	CorrectCommission	0.301429	1.273268	0	0	4.150000e+01
493.490936	1.333063	city	10	1	0.789638	0.789638	0	1	0	0	CorrectCommission	1.788596	1.266947	0	0	4.145000e+01
494.843903	1.372881	city	9	1	1.361709	1.361709	0	1	0	0	CorrectCommission	0.429210	1.277169	0	0	4.140000e+01
496.196838	1.332964	city	10	1	1.801396	1.801396	0	1	0	0	CorrectCommission	2.133790	1.306142	0	0	4.135000e+01
497.509674	1.292713	city	6	1	1.489239	1.489239	0	1	0	0	CorrectCommission	0.923617	1.355375	0	0	4.130000e+01
498.849213	1.386335	city	10	1	1.131070	1.131070	0	1	0	0	CorrectCommission	0.464933	1.425612	0	0	4.125000e+01
500.202148	1.319563	city	3	1	0.829426	0.829426	0	1	0	0	CorrectCommission	1.634344	1.516471	0	0	4.120000e+01
501.521820	1.319784	city	7	1	1.547788	1.547788	0	1	0	0	CorrectCommission	1.150601	1.626250	0	0	4.115000e+01
502.847961	1.332513	city	6	1	1.249035	1.249035	0	1	0	0	CorrectCommission	0.007605	1.751886	0	0	4.110000e+01
504.167358	1.306267	city	9	1	1.080888	1.080888	0	1	0	0	CorrectCommission	0.659475	1.889001	0	0	4.105000e+01
507.772919	5.904826	break	0	0	0.726814	0.726814	0	0	0	0	ThoughtProbe	2.032148	2.032148	0	41	41
