onset	duration	trial_type	image_type	Press	ReactionTime	ReactionTime_Interpolated	CorrectOmission	CorrectCommission	CommissionError	OmissionError	response_type	nonsmoothVarianceTimeCourse	VarianceTimeCourse	In_the_Zone	ThoughtProbe	ThoughtProbe_Interpolated
0.652907	1.279564	city	2	0	0.000000	2.031143	0	0	0	1	OmissionError	2.407409	2.407409	0	0	56
1.932495	1.279612	city	9	0	0.000000	1.710837	0	0	0	1	OmissionError	1.361105	2.202424	0	0	56
3.212077	1.279551	city	4	1	1.390531	1.390531	0	1	0	0	CorrectCommission	0.314802	2.004522	0	0	56
4.491574	1.279442	city	10	1	1.070225	1.070225	0	1	0	0	CorrectCommission	0.731502	1.819966	0	0	56
5.771085	1.279581	city	3	1	1.021263	1.021263	0	1	0	0	CorrectCommission	0.891439	1.653429	0	0	56
7.050650	1.279550	city	7	1	0.748704	0.748704	0	1	0	0	CorrectCommission	1.781775	1.507603	0	0	56
8.336924	1.292997	city	6	1	1.698971	1.698971	0	1	0	0	CorrectCommission	1.322344	1.383075	0	0	56
9.623181	1.279518	city	7	1	1.497462	1.497462	0	1	0	0	CorrectCommission	0.664099	1.278581	0	0	56
10.902718	1.279555	city	8	1	1.292409	1.292409	0	1	0	0	CorrectCommission	0.005719	1.191452	0	0	56
12.189032	1.293073	city	7	1	0.934507	0.934507	0	1	0	0	CorrectCommission	1.174834	1.118277	0	0	56
13.481946	1.292757	city	3	1	0.695924	0.695924	0	1	0	0	CorrectCommission	1.954185	1.055474	0	0	56
14.768188	1.279725	mountain	5	1	0.502167	0.502167	0	0	1	0	CommissionError	2.587104	0.999968	0	0	56
16.054447	1.292797	city	9	1	1.410682	1.410682	0	1	0	0	CorrectCommission	0.380627	0.949510	0	0	56
17.340702	1.279712	mountain	8	0	0.000000	1.584006	1	0	0	0	CorrectOmission	0.946803	0.902906	0	0	56
18.620337	1.279559	mountain	3	1	1.398409	1.398409	0	0	1	0	CommissionError	0.340537	0.859866	0	0	56
19.899916	1.279599	city	6	1	1.230160	1.230160	0	1	0	0	CorrectCommission	0.209060	0.820862	0	0	56
21.179506	1.279580	city	2	1	0.908247	0.908247	0	1	0	0	CorrectCommission	1.260616	0.786756	1	0	56
22.459082	1.279574	city	1	1	1.128066	1.128066	0	1	0	0	CorrectCommission	0.542558	0.758418	1	0	56
23.745316	1.292891	city	2	1	1.359297	1.359297	0	1	0	0	CorrectCommission	0.212775	0.736457	1	0	56
25.038212	1.292903	city	4	1	1.528607	1.528607	0	1	0	0	CorrectCommission	0.765837	0.721024	1	0	56
26.324469	1.279611	city	10	1	1.355402	1.355402	0	1	0	0	CorrectCommission	0.200052	0.711687	1	0	56
27.610727	1.292906	city	4	1	1.295320	1.295320	0	1	0	0	CorrectCommission	0.003787	0.707588	1	0	56
28.896889	1.279418	city	3	1	0.877191	0.877191	0	1	0	0	CorrectCommission	1.362060	0.707567	1	0	56
30.176483	1.279769	city	2	1	0.807110	0.807110	0	1	0	0	CorrectCommission	1.590987	0.710333	1	0	56
31.456133	1.279530	city	4	1	1.659674	1.659674	0	1	0	0	CorrectCommission	1.193980	0.714730	1	0	56
32.735611	1.279426	city	2	1	1.313873	1.313873	0	1	0	0	CorrectCommission	0.064393	0.719865	1	0	56
34.021862	1.293076	city	8	1	1.515386	1.515386	0	1	0	0	CorrectCommission	0.722651	0.725236	1	0	56
35.308132	1.279464	city	10	1	1.362100	1.362100	0	1	0	0	CorrectCommission	0.221931	0.730683	1	0	56
36.594368	1.293008	city	1	1	1.513101	1.513101	0	1	0	0	CorrectCommission	0.715186	0.736440	1	0	56
37.887283	1.292827	city	5	1	1.463111	1.463111	0	1	0	0	CorrectCommission	0.551890	0.743012	1	0	56
39.173527	1.279660	city	3	1	1.697824	1.697824	0	1	0	0	CorrectCommission	1.318599	0.751126	1	0	56
40.459812	1.292909	city	5	1	1.647718	1.647718	0	1	0	0	CorrectCommission	1.154924	0.761519	1	0	56
41.752728	1.292924	city	7	1	1.418457	1.418457	0	1	0	0	CorrectCommission	0.406025	0.774848	1	0	56
43.045635	1.292887	city	6	1	1.023134	1.023134	0	1	0	0	CorrectCommission	0.885327	0.791531	0	0	56
44.338520	1.292885	city	1	1	1.535389	1.535389	0	1	0	0	CorrectCommission	0.787992	0.811580	0	0	56
45.644756	1.319588	mountain	9	1	1.463176	1.463176	0	0	1	0	CommissionError	0.552104	0.834452	0	0	56
46.977585	1.346063	city	2	1	1.247979	1.247979	0	1	0	0	CorrectCommission	0.150853	0.859018	0	0	56
48.297066	1.292904	city	7	1	1.300705	1.300705	0	1	0	0	CorrectCommission	0.021378	0.883591	0	0	56
49.583324	1.279612	city	6	1	1.828142	1.828142	0	1	0	0	CorrectCommission	1.744291	0.906084	0	0	56
50.862911	1.279564	city	9	1	1.521828	1.521828	0	1	0	0	CorrectCommission	0.743693	0.924270	0	0	56
52.142483	1.279579	city	2	1	1.708820	1.708820	0	1	0	0	CorrectCommission	1.354517	0.936213	0	0	56
53.428795	1.293045	city	7	1	1.957593	1.957593	0	1	0	0	CorrectCommission	2.167154	0.940507	0	0	56
54.715031	1.279427	city	4	1	1.738395	1.738395	0	1	0	0	CorrectCommission	1.451127	0.936576	0	0	56
55.994614	1.279737	city	2	1	1.697619	1.697619	0	1	0	0	CorrectCommission	1.317927	0.924857	0	0	56
57.294270	1.319572	city	1	1	1.436216	1.436216	0	1	0	0	CorrectCommission	0.464035	0.906702	0	0	56
60.774803	5.641495	break	0	1	1.046967	1.046967	0	0	0	0	ThoughtProbe	0.807475	0.884266	0	56	56
64.273651	1.356201	city	1	1	1.227744	1.227744	0	1	0	0	CorrectCommission	0.216953	0.860157	0	0	5.547500e+01
65.591537	1.279568	city	10	1	1.138352	1.138352	0	1	0	0	CorrectCommission	0.508958	0.837192	0	0	5.495000e+01
66.891029	1.319425	mountain	6	1	1.110710	1.110710	0	0	1	0	CommissionError	0.599255	0.817972	0	0	5.442500e+01
68.197189	1.292895	city	7	1	1.819017	1.819017	0	1	0	0	CorrectCommission	1.714486	0.804670	0	0	5.390000e+01
69.496841	1.306402	city	10	1	1.500778	1.500778	0	1	0	0	CorrectCommission	0.674933	0.798799	0	0	5.337500e+01
70.796494	1.292908	mountain	5	1	1.310326	1.310326	0	0	1	0	CommissionError	0.052807	0.801164	0	0	5.285000e+01
72.109329	1.332760	city	6	0	0.000000	1.099289	0	0	0	1	OmissionError	0.636562	0.811751	0	0	5.232500e+01
73.422150	1.292877	city	2	1	1.041135	1.041135	0	1	0	0	CorrectCommission	0.826525	0.829764	0	0	5.180000e+01
74.708374	1.279584	city	1	0	0.000000	1.309335	0	0	0	1	OmissionError	0.049568	0.853789	0	0	5.127500e+01
75.994705	1.293069	city	4	1	1.579325	1.579325	0	1	0	0	CorrectCommission	0.931514	0.881946	0	0	5.075000e+01
77.287689	1.292903	city	6	1	1.526547	1.526547	0	1	0	0	CorrectCommission	0.759108	0.912081	0	0	5.022500e+01
78.573853	1.279423	city	4	1	1.735334	1.735334	0	1	0	0	CorrectCommission	1.441127	0.942036	0	0	4.970000e+01
79.853432	1.279742	city	2	0	0.000000	1.819738	0	0	0	1	OmissionError	1.716840	0.969840	0	0	4.917500e+01
81.133102	1.279597	city	10	1	1.790067	1.790067	0	1	0	0	CorrectCommission	1.619918	0.993891	0	0	4.865000e+01
82.439339	1.332870	city	2	1	1.656629	1.656629	0	1	0	0	CorrectCommission	1.184033	1.012975	0	0	4.812500e+01
83.745575	1.279595	city	6	1	1.405371	1.405371	0	1	0	0	CorrectCommission	0.363278	1.026298	0	0	4.760000e+01
85.031738	1.292742	city	1	1	1.196576	1.196576	0	1	0	0	CorrectCommission	0.318767	1.033440	0	0	4.707500e+01
86.324654	1.293088	city	8	1	1.084358	1.084358	0	1	0	0	CorrectCommission	0.685334	1.034248	0	0	4.655000e+01
87.610977	1.279554	city	10	1	0.698695	0.698695	0	1	0	0	CorrectCommission	1.945133	1.028824	0	0	4.602500e+01
88.897217	1.292932	city	4	1	0.871843	0.871843	0	1	0	0	CorrectCommission	1.379532	1.017466	0	0	4.550000e+01
90.183380	1.279396	city	1	1	0.695631	0.695631	0	1	0	0	CorrectCommission	1.955140	1.000756	0	0	4.497500e+01
91.462959	1.279758	city	10	1	1.071032	1.071032	0	1	0	0	CorrectCommission	0.728866	0.979466	0	0	4.445000e+01
92.749298	1.292914	city	9	1	1.350687	1.350687	0	1	0	0	CorrectCommission	0.184649	0.954636	0	0	4.392500e+01
94.035545	1.279578	city	10	1	1.570179	1.570179	0	1	0	0	CorrectCommission	0.901637	0.927480	0	0	4.340000e+01
95.315041	1.279417	mountain	3	0	0.000000	1.692763	1	0	0	0	CorrectOmission	1.302065	0.899296	0	0	4.287500e+01
96.601196	1.292902	city	6	1	1.592433	1.592433	0	1	0	0	CorrectCommission	0.974332	0.871430	0	0	4.235000e+01
97.887520	1.279743	city	4	1	1.143187	1.143187	0	1	0	0	CorrectCommission	0.493164	0.845206	0	0	4.182500e+01
99.173836	1.292889	city	5	1	1.563349	1.563349	0	1	0	0	CorrectCommission	0.879326	0.821823	0	0	4.130000e+01
100.460068	1.279573	city	7	1	1.068848	1.068848	0	1	0	0	CorrectCommission	0.735998	0.802253	0	0	4.077500e+01
101.746300	1.292884	city	8	1	1.047730	1.047730	0	1	0	0	CorrectCommission	0.804984	0.787271	1	0	4.025000e+01
103.032555	1.279623	city	9	1	1.284913	1.284913	0	1	0	0	CorrectCommission	0.030208	0.777403	1	0	3.972500e+01
104.312080	1.279428	city	5	1	1.124168	1.124168	0	1	0	0	CorrectCommission	0.555292	0.772948	1	0	3.920000e+01
105.591637	1.279698	city	3	1	0.863120	0.863120	0	1	0	0	CorrectCommission	1.408026	0.773973	1	0	3.867500e+01
106.871216	1.279460	city	4	1	0.964222	0.964222	0	1	0	0	CorrectCommission	1.077767	0.780334	1	0	3.815000e+01
108.157478	1.293062	city	1	1	1.208167	1.208167	0	1	0	0	CorrectCommission	0.280902	0.791761	0	0	3.762500e+01
109.443710	1.279398	city	10	1	1.498273	1.498273	0	1	0	0	CorrectCommission	0.666750	0.807867	0	0	3.710000e+01
110.723228	1.279647	city	5	1	1.531024	1.531024	0	1	0	0	CorrectCommission	0.773735	0.828073	0	0	3.657500e+01
112.009483	1.292856	city	1	1	1.578459	1.578459	0	1	0	0	CorrectCommission	0.928684	0.851672	0	0	3.605000e+01
113.302383	1.292946	city	5	1	1.191387	1.191387	0	1	0	0	CorrectCommission	0.335717	0.877806	0	0	3.552500e+01
116.841301	5.784894	break	0	1	0.964583	0.964583	0	0	0	0	ThoughtProbe	1.076588	0.905522	0	35	35
120.373528	1.279558	city	4	1	0.983730	0.983730	0	1	0	0	CorrectCommission	1.014045	0.933736	0	0	3.519565e+01
121.653099	1.279580	city	8	1	0.969741	0.969741	0	1	0	0	CorrectCommission	1.059739	0.961383	0	0	3.539130e+01
122.932671	1.279573	city	4	1	0.825698	0.825698	0	1	0	0	CorrectCommission	1.530267	0.987450	0	0	3.558696e+01
124.212204	1.279492	mountain	5	0	0.000000	1.260106	1	0	0	0	CorrectOmission	0.111241	1.011033	0	0	3.578261e+01
125.491798	1.279696	city	4	1	1.763899	1.763899	0	1	0	0	CorrectCommission	1.534437	1.031438	0	0	3.597826e+01
126.771454	1.279615	mountain	1	0	0.000000	1.828011	1	0	0	0	CorrectOmission	1.743864	1.048084	0	0	3.617391e+01
128.050949	1.279376	city	8	0	0.000000	1.592129	0	0	0	1	OmissionError	0.973337	1.060562	0	0	3.636957e+01
129.330475	1.279683	city	6	1	1.195939	1.195939	0	1	0	0	CorrectCommission	0.320846	1.068594	0	0	3.656522e+01
130.610062	1.279485	city	10	1	0.779129	0.779129	0	1	0	0	CorrectCommission	1.682387	1.071955	0	0	3.676087e+01
131.889664	1.279712	city	6	1	1.635825	1.635825	0	1	0	0	CorrectCommission	1.116075	1.070391	0	0	3.695652e+01
133.169312	1.279579	city	10	1	1.674329	1.674329	0	1	0	0	CorrectCommission	1.241850	1.063653	0	0	3.715217e+01
134.455566	1.292931	city	5	1	1.028428	1.028428	0	1	0	0	CorrectCommission	0.868035	1.051482	0	0	3.734783e+01
135.741821	1.279583	city	8	1	1.338098	1.338098	0	1	0	0	CorrectCommission	0.143525	1.033699	0	0	3.754348e+01
137.028061	1.292907	mountain	4	1	0.875578	0.875578	0	0	1	0	CommissionError	1.367329	1.010264	0	0	3.773913e+01
138.314301	1.279572	city	3	1	2.125478	2.125478	0	1	0	0	CorrectCommission	2.715563	0.981348	0	0	3.793478e+01
139.600540	1.292890	city	6	1	1.564692	1.564692	0	1	0	0	CorrectCommission	0.883714	0.947451	0	0	3.813043e+01
140.886734	1.279506	city	3	1	1.070332	1.070332	0	1	0	0	CorrectCommission	0.731150	0.909509	0	0	3.832609e+01
142.166321	1.279671	city	6	1	1.229087	1.229087	0	1	0	0	CorrectCommission	0.212568	0.868756	0	0	3.852174e+01
143.452530	1.292745	city	9	1	1.668676	1.668676	0	1	0	0	CorrectCommission	1.223385	0.826692	0	0	3.871739e+01
144.738693	1.279574	city	10	1	1.449563	1.449563	0	1	0	0	CorrectCommission	0.507636	0.784921	1	0	3.891304e+01
146.018326	1.279686	city	4	1	1.124328	1.124328	0	1	0	0	CorrectCommission	0.554770	0.745095	1	0	3.910870e+01
147.304657	1.292974	city	2	1	1.669921	1.669921	0	1	0	0	CorrectCommission	1.227450	0.708660	1	0	3.930435e+01
148.590836	1.279404	mountain	3	1	1.231626	1.231626	0	0	1	0	CommissionError	0.204271	0.676805	1	0	3.950000e+01
149.870422	1.279754	city	6	1	1.390843	1.390843	0	1	0	0	CorrectCommission	0.315820	0.650392	1	0	3.969565e+01
151.149994	1.279387	city	10	1	1.444048	1.444048	0	1	0	0	CorrectCommission	0.489621	0.629869	1	0	3.989130e+01
152.429489	1.279603	city	2	1	1.071032	1.071032	0	1	0	0	CorrectCommission	0.728864	0.615342	1	0	4.008696e+01
153.709061	1.279562	city	5	1	1.444148	1.444148	0	1	0	0	CorrectCommission	0.489947	0.606563	1	0	4.028261e+01
154.995377	1.293066	city	1	1	1.425106	1.425106	0	1	0	0	CorrectCommission	0.427743	0.603048	1	0	4.047826e+01
156.281616	1.279413	city	2	1	1.037889	1.037889	0	1	0	0	CorrectCommission	0.837130	0.604140	1	0	4.067391e+01
157.561203	1.279743	city	9	1	1.335014	1.335014	0	1	0	0	CorrectCommission	0.133453	0.609106	1	0	4.086957e+01
158.840866	1.279603	city	10	1	1.070811	1.070811	0	1	0	0	CorrectCommission	0.729588	0.617187	1	0	4.106522e+01
160.120361	1.279391	city	5	1	0.964226	0.964226	0	1	0	0	CorrectCommission	1.077755	0.627665	1	0	4.126087e+01
161.399933	1.279748	city	2	1	1.388089	1.388089	0	1	0	0	CorrectCommission	0.306824	0.639880	1	0	4.145652e+01
162.679611	1.279594	city	4	1	1.494791	1.494791	0	1	0	0	CorrectCommission	0.655377	0.653240	1	0	4.165217e+01
163.959183	1.279560	city	3	1	1.523664	1.523664	0	1	0	0	CorrectCommission	0.749692	0.667195	1	0	4.184783e+01
165.238678	1.279427	city	7	1	1.550927	1.550927	0	1	0	0	CorrectCommission	0.838748	0.681253	1	0	4.204348e+01
166.518265	1.279735	city	8	1	1.126901	1.126901	0	1	0	0	CorrectCommission	0.546363	0.694934	1	0	4.223913e+01
167.797913	1.279573	city	1	1	1.390802	1.390802	0	1	0	0	CorrectCommission	0.315689	0.707856	1	0	4.243478e+01
169.077423	1.279450	city	8	1	1.180314	1.180314	0	1	0	0	CorrectCommission	0.371887	0.719750	1	0	4.263043e+01
170.356964	1.279625	city	7	1	1.817968	1.817968	0	1	0	0	CorrectCommission	1.711057	0.730519	1	0	4.282609e+01
171.643188	1.292832	city	1	1	1.244227	1.244227	0	1	0	0	CorrectCommission	0.163111	0.740233	1	0	4.302174e+01
172.929398	1.279581	city	5	1	0.801521	0.801521	0	1	0	0	CorrectCommission	1.609241	0.749271	1	0	4.321739e+01
174.208984	1.279602	city	6	1	1.071107	1.071107	0	1	0	0	CorrectCommission	0.728620	0.758126	1	0	4.341304e+01
175.488617	1.279638	city	2	1	1.037175	1.037175	0	1	0	0	CorrectCommission	0.839460	0.767438	1	0	4.360870e+01
176.774948	1.293040	city	9	1	1.086896	1.086896	0	1	0	0	CorrectCommission	0.677045	0.777773	1	0	4.380435e+01
179.760681	4.678429	break	0	0	0.000000	1.358047	0	0	0	0	ThoughtProbe	0.208693	0.789482	0	44	44
182.739685	1.279581	city	3	1	1.507148	1.507148	0	1	0	0	CorrectCommission	0.695742	0.802556	0	0	4.392500e+01
184.025925	1.292900	city	8	1	1.190716	1.190716	0	1	0	0	CorrectCommission	0.337907	0.816514	0	0	4.385000e+01
185.312164	1.279567	city	7	1	1.555827	1.555827	0	1	0	0	CorrectCommission	0.854755	0.830462	0	0	4.377500e+01
186.598404	1.292902	mountain	1	0	0.000000	1.205773	1	0	0	0	CorrectOmission	0.288722	0.843154	0	0	4.370000e+01
187.884644	1.279582	city	10	1	0.728065	0.728065	0	1	0	0	CorrectCommission	1.849194	0.853222	0	0	4.362500e+01
189.164139	1.279424	city	2	1	0.710211	0.710211	0	1	0	0	CorrectCommission	1.907513	0.859351	0	0	4.355000e+01
190.443726	1.279733	city	8	1	1.512062	1.512062	0	1	0	0	CorrectCommission	0.711793	0.860531	0	0	4.347500e+01
191.729965	1.292741	city	1	1	1.166858	1.166858	0	1	0	0	CorrectCommission	0.415842	0.856208	0	0	4.340000e+01
193.016144	1.279629	city	2	1	0.857793	0.857793	0	1	0	0	CorrectCommission	1.425425	0.846335	0	0	4.332500e+01
194.302399	1.292867	city	3	1	1.574380	1.574380	0	1	0	0	CorrectCommission	0.915360	0.831287	0	0	4.325000e+01
195.588623	1.279607	city	1	1	1.391094	1.391094	0	1	0	0	CorrectCommission	0.316640	0.811875	0	0	4.317500e+01
196.868210	1.279568	city	4	1	1.498528	1.498528	0	1	0	0	CorrectCommission	0.667583	0.789169	0	0	4.310000e+01
198.147858	1.279718	mountain	5	0	0.000000	1.522573	1	0	0	0	CorrectOmission	0.746129	0.764378	1	0	4.302500e+01
199.427505	1.279583	city	1	1	1.562142	1.562142	0	1	0	0	CorrectCommission	0.875384	0.738750	1	0	4.295000e+01
200.707108	1.279602	city	9	1	1.716148	1.716148	0	1	0	0	CorrectCommission	1.378456	0.713515	1	0	4.287500e+01
201.986603	1.279407	city	6	1	1.339777	1.339777	0	1	0	0	CorrectCommission	0.149012	0.689773	1	0	4.280000e+01
203.266098	1.279562	city	2	1	0.979687	0.979687	0	1	0	0	CorrectCommission	1.027249	0.668581	1	0	4.272500e+01
204.552414	1.293091	city	3	1	1.348434	1.348434	0	1	0	0	CorrectCommission	0.177291	0.650765	1	0	4.265000e+01
205.838669	1.279394	city	8	1	1.335925	1.335925	0	1	0	0	CorrectCommission	0.136426	0.637002	1	0	4.257500e+01
207.118240	1.279767	city	9	1	1.471896	1.471896	0	1	0	0	CorrectCommission	0.580588	0.627742	1	0	4.250000e+01
208.404572	1.292887	city	4	1	1.062647	1.062647	0	1	0	0	CorrectCommission	0.756257	0.623202	1	0	4.242500e+01
209.690750	1.279462	city	3	1	1.604016	1.604016	0	1	0	0	CorrectCommission	1.012167	0.623370	1	0	4.235000e+01
210.970245	1.279557	city	8	1	1.460414	1.460414	0	1	0	0	CorrectCommission	0.543080	0.628004	1	0	4.227500e+01
212.249817	1.279579	mountain	2	0	0.000000	1.428071	1	0	0	0	CorrectOmission	0.437428	0.636661	1	0	4.220000e+01
213.529388	1.279557	city	10	1	1.417098	1.417098	0	1	0	0	CorrectCommission	0.401587	0.648692	1	0	4.212500e+01
214.808975	1.279614	city	2	1	1.337610	1.337610	0	1	0	0	CorrectCommission	0.141933	0.663303	1	0	4.205000e+01
216.095306	1.293053	city	3	1	1.138085	1.138085	0	1	0	0	CorrectCommission	0.509832	0.679603	1	0	4.197500e+01
217.381622	1.279580	city	2	1	0.801655	0.801655	0	1	0	0	CorrectCommission	1.608804	0.696701	1	0	4.190000e+01
218.661118	1.279409	city	8	1	1.337407	1.337407	0	1	0	0	CorrectCommission	0.141269	0.713805	1	0	4.182500e+01
219.947311	1.292990	city	5	1	0.870843	0.870843	0	1	0	0	CorrectCommission	1.382799	0.730338	1	0	4.175000e+01
221.233643	1.279648	city	8	1	1.619484	1.619484	0	1	0	0	CorrectCommission	1.062694	0.745884	1	0	4.167500e+01
222.513184	1.279451	city	2	1	1.614352	1.614352	0	1	0	0	CorrectCommission	1.045931	0.760290	1	0	4.160000e+01
223.792694	1.279570	city	6	1	1.342707	1.342707	0	1	0	0	CorrectCommission	0.158583	0.773571	1	0	4.152500e+01
225.072342	1.279729	city	7	1	1.390892	1.390892	0	1	0	0	CorrectCommission	0.315983	0.785850	1	0	4.145000e+01
226.351990	1.279554	city	8	1	1.337424	1.337424	0	1	0	0	CorrectCommission	0.141324	0.797283	0	0	4.137500e+01
227.631561	1.279583	city	2	1	1.740804	1.740804	0	1	0	0	CorrectCommission	1.458994	0.807999	0	0	4.130000e+01
228.911148	1.279583	city	1	1	1.782578	1.782578	0	1	0	0	CorrectCommission	1.595453	0.818054	0	0	4.122500e+01
230.190643	1.279419	city	9	1	1.551029	1.551029	0	1	0	0	CorrectCommission	0.839081	0.827492	0	0	4.115000e+01
231.476807	1.292909	city	3	1	1.084106	1.084106	0	1	0	0	CorrectCommission	0.686159	0.836318	0	0	4.107500e+01
235.275604	6.304682	break	0	1	1.070796	1.070796	0	0	0	0	ThoughtProbe	0.729634	0.844488	0	41	41
239.074356	1.292812	city	2	1	1.210223	1.210223	0	1	0	0	CorrectCommission	0.274186	0.851923	0	0	4.145000e+01
240.360626	1.279745	mountain	6	0	0.000000	0.985529	1	0	0	0	CorrectOmission	1.008168	0.858514	0	0	4.190000e+01
241.646957	1.292911	city	10	1	0.956592	0.956592	0	1	0	0	CorrectCommission	1.102691	0.864134	0	0	4.235000e+01
242.933411	1.280012	city	5	1	1.683294	1.683294	0	1	0	0	CorrectCommission	1.271134	0.868623	0	0	4.280000e+01
244.219589	1.292318	city	6	1	1.080670	1.080670	0	1	0	0	CorrectCommission	0.697381	0.871855	0	0	4.325000e+01
245.505539	1.279601	city	1	1	1.443843	1.443843	0	1	0	0	CorrectCommission	0.488952	0.873725	0	0	4.370000e+01
246.785202	1.279710	city	8	1	0.964893	0.964893	0	1	0	0	CorrectCommission	1.075575	0.874151	0	0	4.415000e+01
248.064835	1.279578	city	2	1	0.861024	0.861024	0	1	0	0	CorrectCommission	1.414872	0.873092	0	0	4.460000e+01
249.344421	1.279580	city	7	1	1.197906	1.197906	0	1	0	0	CorrectCommission	0.314420	0.870542	0	0	4.505000e+01
250.624008	1.279584	city	2	1	1.027449	1.027449	0	1	0	0	CorrectCommission	0.871231	0.866513	0	0	4.550000e+01
251.903580	1.279576	city	5	1	1.708024	1.708024	0	1	0	0	CorrectCommission	1.351918	0.860993	0	0	4.595000e+01
253.183090	1.279429	city	1	1	1.575600	1.575600	0	1	0	0	CorrectCommission	0.919346	0.853944	0	0	4.640000e+01
254.469254	1.292918	city	9	1	1.199903	1.199903	0	1	0	0	CorrectCommission	0.307897	0.845259	0	0	4.685000e+01
255.755585	1.279741	city	4	1	1.633855	1.633855	0	1	0	0	CorrectCommission	1.109638	0.834781	0	0	4.730000e+01
257.035248	1.279553	mountain	9	0	0.000000	1.371352	1	0	0	0	CorrectOmission	0.252154	0.822316	0	0	4.775000e+01
258.314728	1.279436	city	10	1	0.964243	0.964243	0	1	0	0	CorrectCommission	1.077700	0.807692	0	0	4.820000e+01
259.594238	1.279581	city	4	1	0.964373	0.964373	0	1	0	0	CorrectCommission	1.077275	0.790783	0	0	4.865000e+01
260.887207	1.306373	city	1	1	0.788187	0.788187	0	1	0	0	CorrectCommission	1.652800	0.771583	1	0	4.910000e+01
262.180206	1.279589	city	6	1	1.474711	1.474711	0	1	0	0	CorrectCommission	0.589784	0.750247	1	0	4.955000e+01
263.466370	1.292767	city	4	1	1.249841	1.249841	0	1	0	0	CorrectCommission	0.144773	0.727169	1	0	50
264.752625	1.279716	city	6	1	1.284263	1.284263	0	1	0	0	CorrectCommission	0.032330	0.702921	1	0	5.045000e+01
266.038849	1.292748	city	2	1	0.838290	0.838290	0	1	0	0	CorrectCommission	1.489133	0.678220	1	0	5.090000e+01
267.325104	1.279756	city	7	1	1.391869	1.391869	0	1	0	0	CorrectCommission	0.319172	0.653851	1	0	5.135000e+01
268.644745	1.359534	city	6	1	1.754588	1.754588	0	1	0	0	CorrectCommission	1.504022	0.630654	1	0	5.180000e+01
269.970978	1.292908	city	3	1	1.155042	1.155042	0	1	0	0	CorrectCommission	0.454439	0.609325	1	0	5.225000e+01
271.257233	1.279601	city	6	1	1.301076	1.301076	0	1	0	0	CorrectCommission	0.022592	0.590428	1	0	5.270000e+01
272.536743	1.279423	city	2	1	1.396679	1.396679	0	1	0	0	CorrectCommission	0.334887	0.574235	1	0	5.315000e+01
273.822906	1.292924	city	9	1	1.463395	1.463395	0	1	0	0	CorrectCommission	0.552817	0.560718	1	0	5.360000e+01
275.122559	1.306368	city	7	1	1.364146	1.364146	0	1	0	0	CorrectCommission	0.228613	0.549556	1	0	5.405000e+01
276.415527	1.279593	city	10	1	1.303663	1.303663	0	1	0	0	CorrectCommission	0.031042	0.540192	1	0	5.450000e+01
277.701782	1.292883	mountain	1	1	0.730877	0.730877	0	0	1	0	CommissionError	1.840006	0.532059	1	0	5.495000e+01
278.988007	1.279579	city	1	1	1.291938	1.291938	0	1	0	0	CorrectCommission	0.007258	0.524655	1	0	5.540000e+01
280.274231	1.292891	city	3	1	1.244158	1.244158	0	1	0	0	CorrectCommission	0.163334	0.517895	1	0	5.585000e+01
281.573822	1.306253	city	5	1	1.696652	1.696652	0	1	0	0	CorrectCommission	1.314768	0.512136	1	0	5.630000e+01
282.866638	1.279415	city	6	1	1.090110	1.090110	0	1	0	0	CorrectCommission	0.666544	0.508261	1	0	5.675000e+01
284.152893	1.293095	city	4	1	1.082194	1.082194	0	1	0	0	CorrectCommission	0.692403	0.507642	1	0	5.720000e+01
285.439240	1.279614	city	6	1	1.292368	1.292368	0	1	0	0	CorrectCommission	0.005855	0.511960	1	0	5.765000e+01
286.725494	1.292852	city	8	1	1.359366	1.359366	0	1	0	0	CorrectCommission	0.213000	0.522933	1	0	5.810000e+01
288.018372	1.292935	city	1	1	1.421118	1.421118	0	1	0	0	CorrectCommission	0.414719	0.541987	1	0	5.855000e+01
292.156952	6.984194	break	0	1	1.177464	1.177464	0	0	0	0	ThoughtProbe	0.381198	0.569906	1	59	59
296.288910	1.279735	mountain	6	0	0.000000	1.189335	1	0	0	0	CorrectOmission	0.342418	0.606592	1	0	5.867647e+01
297.568573	1.279578	city	7	1	1.310911	1.310911	0	1	0	0	CorrectCommission	0.054717	0.650892	1	0	5.835294e+01
298.868134	1.319558	city	1	1	1.396367	1.396367	0	1	0	0	CorrectCommission	0.333867	0.700584	1	0	5.802941e+01
300.174377	1.292932	city	4	1	1.364278	1.364278	0	1	0	0	CorrectCommission	0.229044	0.752485	1	0	5.770588e+01
301.473938	1.306213	city	5	1	1.715018	1.715018	0	1	0	0	CorrectCommission	1.374764	0.802861	0	0	5.738235e+01
302.780182	1.306237	city	2	1	1.550383	1.550383	0	1	0	0	CorrectCommission	0.836970	0.847754	0	0	5.705882e+01
304.079742	1.292928	city	1	1	1.899853	1.899853	0	1	0	0	CorrectCommission	1.978540	0.883522	0	0	5.673529e+01
305.405975	1.359520	city	4	1	2.058072	2.058072	0	1	0	0	CorrectCommission	2.495375	0.907257	0	0	5.641176e+01
306.772186	1.372904	city	1	1	1.343796	1.343796	0	1	0	0	CorrectCommission	0.162139	0.917110	0	0	5.608824e+01
308.105103	1.292902	city	8	1	1.682559	1.682559	0	1	0	0	CorrectCommission	1.268734	0.912595	0	0	5.576471e+01
309.398010	1.292940	city	5	1	1.324405	1.324405	0	1	0	0	CorrectCommission	0.098798	0.894511	0	0	5.544118e+01
310.704193	1.319389	mountain	3	1	0.817088	0.817088	0	0	1	0	CommissionError	1.558392	0.864954	0	0	5.511765e+01
312.010315	1.292907	city	10	0	0.000000	0.769960	0	0	0	1	OmissionError	1.712338	0.826954	0	0	5.479412e+01
313.296631	1.279719	city	4	1	0.964233	0.964233	0	1	0	0	CorrectCommission	1.077731	0.784245	1	0	5.447059e+01
314.576294	1.279607	city	2	0	0.000000	1.181118	0	0	0	1	OmissionError	0.369261	0.740833	1	0	5.414706e+01
315.855896	1.279586	city	5	0	0.000000	1.334298	0	0	0	1	OmissionError	0.131113	0.700508	1	0	5.382353e+01
317.135468	1.279545	city	4	1	1.337457	1.337457	0	1	0	0	CorrectCommission	0.141432	0.666463	1	0	5.350000e+01
318.428284	1.306089	city	5	1	1.104279	1.104279	0	1	0	0	CorrectCommission	0.620263	0.640953	1	0	5.317647e+01
319.734528	1.306402	city	8	1	1.264318	1.264318	0	1	0	0	CorrectCommission	0.097482	0.625056	1	0	5.285294e+01
321.047455	1.319473	city	6	1	1.260761	1.260761	0	1	0	0	CorrectCommission	0.109102	0.618639	1	0	5.252941e+01
322.353699	1.292998	city	3	1	1.156985	1.156985	0	1	0	0	CorrectCommission	0.448092	0.620478	1	0	5.220588e+01
323.639923	1.279416	city	1	1	1.444003	1.444003	0	1	0	0	CorrectCommission	0.489473	0.628520	1	0	5.188235e+01
324.926147	1.293062	city	10	1	1.179864	1.179864	0	1	0	0	CorrectCommission	0.373357	0.640285	1	0	5.155882e+01
326.212402	1.279439	city	6	0	0.000000	0.836603	0	0	0	1	OmissionError	1.494646	0.653307	1	0	5.123529e+01
327.491913	1.279582	city	10	1	0.770656	0.770656	0	1	0	0	CorrectCommission	1.710067	0.665476	1	0	5.091176e+01
328.771484	1.279549	city	6	1	1.338458	1.338458	0	1	0	0	CorrectCommission	0.144702	0.675396	1	0	5.058824e+01
330.117767	1.413029	city	8	1	1.739581	1.739581	0	1	0	0	CorrectCommission	1.454999	0.682493	1	0	5.026471e+01
331.464020	1.279472	city	5	1	1.284529	1.284529	0	1	0	0	CorrectCommission	0.031462	0.686959	1	0	4.994118e+01
332.743561	1.279620	city	7	1	1.516232	1.516232	0	1	0	0	CorrectCommission	0.725415	0.689653	1	0	4.961765e+01
334.036530	1.306304	city	5	1	1.605686	1.605686	0	1	0	0	CorrectCommission	1.017622	0.691729	1	0	4.929412e+01
335.336060	1.292780	city	10	1	1.367458	1.367458	0	1	0	0	CorrectCommission	0.239433	0.694447	1	0	4.897059e+01
336.642303	1.319697	city	1	1	1.099067	1.099067	0	1	0	0	CorrectCommission	0.637285	0.698813	1	0	4.864706e+01
337.941864	1.279445	city	2	1	1.283923	1.283923	0	1	0	0	CorrectCommission	0.033441	0.705377	1	0	4.832353e+01
341.653900	6.144624	break	0	0	0.000000	1.480183	0	0	0	0	ThoughtProbe	0.607656	0.714167	1	48	48
345.366089	1.279756	city	4	1	1.473605	1.473605	0	1	0	0	CorrectCommission	0.586171	0.724716	1	0	4.769565e+01
346.659058	1.306148	city	8	1	1.049950	1.049950	0	1	0	0	CorrectCommission	0.797731	0.736211	1	0	4.739130e+01
347.951935	1.279595	mountain	1	1	0.676523	0.676523	0	0	1	0	CommissionError	2.017560	0.747655	1	0	4.708696e+01
349.244781	1.306141	city	5	1	1.045169	1.045169	0	1	0	0	CorrectCommission	0.813347	0.758093	1	0	4.678261e+01
350.537659	1.279574	city	1	1	1.299076	1.299076	0	1	0	0	CorrectCommission	0.016058	0.766819	1	0	4.647826e+01
351.843872	1.332881	city	5	1	0.970952	0.970952	0	1	0	0	CorrectCommission	1.055783	0.773434	1	0	4.617391e+01
353.156860	1.293086	mountain	10	1	1.581228	1.581228	0	0	1	0	CommissionError	0.937728	0.777877	1	0	4.586957e+01
354.443176	1.279522	city	4	1	1.470839	1.470839	0	1	0	0	CorrectCommission	0.577135	0.780428	1	0	4.556522e+01
355.742737	1.319613	city	8	1	1.061631	1.061631	0	1	0	0	CorrectCommission	0.759573	0.781621	1	0	4.526087e+01
357.068970	1.332893	city	2	1	1.057501	1.057501	0	1	0	0	CorrectCommission	0.773063	0.782100	1	0	4.495652e+01
358.441833	1.412831	city	4	1	0.929552	0.929552	0	1	0	0	CorrectCommission	1.191021	0.782547	1	0	4.465217e+01
359.794739	1.292943	city	6	1	1.190780	1.190780	0	1	0	0	CorrectCommission	0.337700	0.783540	1	0	4.434783e+01
361.080994	1.279582	city	5	1	1.557373	1.557373	0	1	0	0	CorrectCommission	0.859806	0.785494	1	0	4.404348e+01
362.387146	1.332728	city	3	1	1.038075	1.038075	0	1	0	0	CorrectCommission	0.836522	0.788585	0	0	4.373913e+01
363.700043	1.293074	city	7	1	1.379659	1.379659	0	1	0	0	CorrectCommission	0.279287	0.792689	0	0	4.343478e+01
364.999634	1.306106	city	10	1	1.731894	1.731894	0	1	0	0	CorrectCommission	1.429890	0.797426	0	0	4.313043e+01
366.305817	1.306223	city	1	1	1.551092	1.551092	0	1	0	0	CorrectCommission	0.839288	0.802105	0	0	4.282609e+01
367.618652	1.319483	mountain	4	1	1.291857	1.291857	0	0	1	0	CommissionError	0.007524	0.805881	0	0	4.252174e+01
368.931549	1.306297	city	7	1	1.194191	1.194191	0	1	0	0	CorrectCommission	0.326557	0.807852	0	0	4.221739e+01
370.244568	1.319756	city	6	1	0.708375	0.708375	0	1	0	0	CorrectCommission	1.913512	0.807154	0	0	4.191304e+01
371.557495	1.306077	city	5	1	0.777830	0.777830	0	1	0	0	CorrectCommission	1.686630	0.803081	0	0	4.160870e+01
372.850403	1.279717	mountain	2	0	0.000000	1.278540	1	0	0	0	CorrectOmission	0.051025	0.795260	0	0	4.130435e+01
374.130066	1.279664	city	7	1	1.579114	1.579114	0	1	0	0	CorrectCommission	0.930822	0.783727	1	0	41
375.429657	1.319480	city	8	1	1.048162	1.048162	0	1	0	0	CorrectCommission	0.803572	0.768865	1	0	4.069565e+01
376.742493	1.306234	city	10	1	1.500480	1.500480	0	1	0	0	CorrectCommission	0.673960	0.751437	1	0	4.039130e+01
378.048737	1.306241	city	9	1	1.604214	1.604214	0	1	0	0	CorrectCommission	1.012814	0.732515	1	0	4.008696e+01
379.381653	1.359571	city	8	1	1.099570	1.099570	0	1	0	0	CorrectCommission	0.635643	0.713364	1	0	3.978261e+01
380.727875	1.332873	city	1	1	0.948104	0.948104	0	1	0	0	CorrectCommission	1.130420	0.695233	1	0	3.947826e+01
382.040771	1.292905	city	8	1	1.297716	1.297716	0	1	0	0	CorrectCommission	0.011614	0.679254	1	0	3.917391e+01
383.347015	1.319595	city	3	1	1.174543	1.174543	0	1	0	0	CorrectCommission	0.390737	0.666379	1	0	3.886957e+01
384.699890	1.386189	city	8	1	1.108804	1.108804	0	1	0	0	CorrectCommission	0.605479	0.657237	1	0	3.856522e+01
386.046021	1.306075	city	3	1	1.383121	1.383121	0	1	0	0	CorrectCommission	0.290596	0.652165	1	0	3.826087e+01
387.352203	1.306252	city	8	1	1.532303	1.532303	0	1	0	0	CorrectCommission	0.777912	0.651224	1	0	3.795652e+01
388.658508	1.306383	city	2	1	1.578403	1.578403	0	1	0	0	CorrectCommission	0.928501	0.654333	1	0	3.765217e+01
389.958160	1.292906	city	9	1	1.595509	1.595509	0	1	0	0	CorrectCommission	0.984379	0.661366	1	0	3.734783e+01
391.304382	1.399538	city	8	1	1.346141	1.346141	0	1	0	0	CorrectCommission	0.169800	0.672257	1	0	3.704348e+01
392.717255	1.426199	city	3	1	1.165618	1.165618	0	1	0	0	CorrectCommission	0.419893	0.687137	1	0	3.673913e+01
394.083496	1.306262	city	5	1	1.068904	1.068904	0	1	0	0	CorrectCommission	0.735817	0.706252	1	0	3.643478e+01
395.376343	1.279478	city	4	1	1.726689	1.726689	0	1	0	0	CorrectCommission	1.412887	0.730019	1	0	3.613043e+01
396.689240	1.346298	city	6	1	1.437120	1.437120	0	1	0	0	CorrectCommission	0.466990	0.758885	1	0	3.582609e+01
398.028839	1.332916	city	3	1	1.512221	1.512221	0	1	0	0	CorrectCommission	0.712313	0.793259	0	0	3.552174e+01
399.348419	1.306242	city	7	1	1.103063	1.103063	0	1	0	0	CorrectCommission	0.624234	0.833242	0	0	3.521739e+01
400.641235	1.279390	city	4	1	1.284948	1.284948	0	1	0	0	CorrectCommission	0.030092	0.878589	0	0	3.491304e+01
401.934174	1.306458	city	2	1	1.442272	1.442272	0	1	0	0	CorrectCommission	0.483819	0.928622	0	0	3.460870e+01
403.240509	1.306205	city	5	1	0.939253	0.939253	0	1	0	0	CorrectCommission	1.159330	0.982141	0	0	3.430435e+01
407.192505	6.597797	break	0	1	0.510926	0.510926	0	0	0	0	ThoughtProbe	2.558493	1.037553	0	34	34
411.131195	1.279584	city	4	1	1.308818	1.308818	0	1	0	0	CorrectCommission	0.047882	1.092942	0	0	3.373529e+01
412.430786	1.319591	city	10	1	1.127825	1.127825	0	1	0	0	CorrectCommission	0.543345	1.146358	0	0	3.347059e+01
413.763672	1.346199	city	6	1	1.796485	1.796485	0	1	0	0	CorrectCommission	1.640880	1.195843	0	0	3.320588e+01
415.089874	1.306236	city	2	1	1.953263	1.953263	0	1	0	0	CorrectCommission	2.153007	1.239633	0	0	3.294118e+01
416.396149	1.306264	city	8	1	1.913295	1.913295	0	1	0	0	CorrectCommission	2.022449	1.276318	0	0	3.267647e+01
417.695709	1.292905	city	3	0	0.000000	1.411628	0	0	0	1	OmissionError	0.383718	1.304848	0	0	3.241176e+01
418.995300	1.306242	city	4	1	0.873898	0.873898	0	1	0	0	CorrectCommission	1.372818	1.324576	0	0	3.214706e+01
420.301514	1.306213	city	3	1	0.725740	0.725740	0	1	0	0	CorrectCommission	1.856786	1.335165	0	0	3.188235e+01
421.594421	1.279579	mountain	2	1	1.660608	1.660608	0	0	1	0	CommissionError	1.197030	1.336577	0	0	3.161765e+01
422.900665	1.332890	city	6	1	1.957130	1.957130	0	1	0	0	CorrectCommission	2.165640	1.329046	0	0	3.135294e+01
424.226898	1.319589	city	1	1	1.455691	1.455691	0	1	0	0	CorrectCommission	0.527652	1.312961	0	0	3.108824e+01
425.566376	1.359368	city	5	1	0.843825	0.843825	0	1	0	0	CorrectCommission	1.471055	1.288981	0	0	3.082353e+01
426.912598	1.333078	city	10	1	1.020903	1.020903	0	1	0	0	CorrectCommission	0.892615	1.257920	0	0	3.055882e+01
428.225555	1.292821	city	9	1	0.591005	0.591005	0	1	0	0	CorrectCommission	2.296909	1.220856	0	0	3.029412e+01
429.531769	1.319654	city	5	1	1.000072	1.000072	0	1	0	0	CorrectCommission	0.960662	1.179074	0	0	3.002941e+01
430.844727	1.306217	mountain	7	1	0.663570	0.663570	0	0	1	0	CommissionError	2.059871	1.134088	0	0	2.976471e+01
432.157593	1.319560	city	9	1	1.621084	1.621084	0	1	0	0	CorrectCommission	1.067921	1.087465	0	0	2.950000e+01
433.470459	1.306148	city	8	1	1.267584	1.267584	0	1	0	0	CorrectCommission	0.086814	1.040788	0	0	2.923529e+01
434.769958	1.292849	city	4	1	1.622902	1.622902	0	1	0	0	CorrectCommission	1.073861	0.995492	0	0	2.897059e+01
436.089600	1.346415	city	1	1	1.297183	1.297183	0	1	0	0	CorrectCommission	0.009874	0.952690	0	0	2.870588e+01
437.402588	1.279557	city	7	1	0.910849	0.910849	0	1	0	0	CorrectCommission	1.252115	0.913202	0	0	2.844118e+01
438.702118	1.319548	city	3	1	1.486301	1.486301	0	1	0	0	CorrectCommission	0.627644	0.877433	0	0	2.817647e+01
440.035034	1.346250	city	2	1	0.981195	0.981195	0	1	0	0	CorrectCommission	1.022324	0.845582	0	0	2.791176e+01
441.361267	1.306237	city	5	1	1.795425	1.795425	0	1	0	0	CorrectCommission	1.637419	0.817660	0	0	2.764706e+01
442.667511	1.306212	city	7	1	1.443784	1.443784	0	1	0	0	CorrectCommission	0.488758	0.793600	0	0	2.738235e+01
443.987061	1.332891	city	2	1	1.193060	1.193060	0	1	0	0	CorrectCommission	0.330251	0.773361	1	0	2.711765e+01
445.306549	1.306113	city	8	1	1.041262	1.041262	0	1	0	0	CorrectCommission	0.826111	0.756942	1	0	2.685294e+01
446.646088	1.372935	city	7	1	1.050991	1.050991	0	1	0	0	CorrectCommission	0.794330	0.744337	1	0	2.658824e+01
447.978973	1.292842	city	4	1	0.932207	0.932207	0	1	0	0	CorrectCommission	1.182347	0.735458	1	0	2.632353e+01
449.278564	1.306381	city	9	1	1.263353	1.263353	0	1	0	0	CorrectCommission	0.100635	0.730058	1	0	2.605882e+01
450.604889	1.346251	city	10	1	1.284001	1.284001	0	1	0	0	CorrectCommission	0.033186	0.727728	1	0	2.579412e+01
451.937714	1.319397	city	9	1	1.218035	1.218035	0	1	0	0	CorrectCommission	0.248669	0.727802	1	0	2.552941e+01
453.243927	1.293048	city	8	1	1.039462	1.039462	0	1	0	0	CorrectCommission	0.831992	0.729472	1	0	2.526471e+01
457.462616	7.144317	break	0	1	0.541068	0.541068	0	0	0	0	ThoughtProbe	2.460031	0.731841	1	25	25
461.674591	1.279610	city	8	1	1.124213	1.124213	0	1	0	0	CorrectCommission	0.555145	0.734054	1	0	2.547059e+01
462.954102	1.279409	mountain	5	0	0.000000	1.362778	1	0	0	0	CorrectOmission	0.224145	0.735451	1	0	2.594118e+01
464.233643	1.279714	city	2	1	1.442865	1.442865	0	1	0	0	CorrectCommission	0.485754	0.735594	1	0	2.641176e+01
465.513275	1.279496	city	6	1	1.550574	1.550574	0	1	0	0	CorrectCommission	0.837595	0.734299	1	0	2.688235e+01
466.792786	1.279527	city	8	1	1.548278	1.548278	0	1	0	0	CorrectCommission	0.830097	0.731665	1	0	2.735294e+01
468.072388	1.279712	city	5	1	1.662879	1.662879	0	1	0	0	CorrectCommission	1.204448	0.727994	1	0	2.782353e+01
469.351959	1.279450	city	3	0	0.000000	1.526560	0	0	0	1	OmissionError	0.759153	0.723687	1	0	2.829412e+01
470.631470	1.279573	city	4	1	1.281781	1.281781	0	1	0	0	CorrectCommission	0.040437	0.719237	1	0	2.876471e+01
471.911133	1.279706	city	3	1	1.071000	1.071000	0	1	0	0	CorrectCommission	0.728969	0.715100	1	0	2.923529e+01
473.190796	1.279618	city	4	1	0.970062	0.970062	0	1	0	0	CorrectCommission	1.058692	0.711676	1	0	2.970588e+01
474.470398	1.279603	city	5	1	1.284114	1.284114	0	1	0	0	CorrectCommission	0.032816	0.709252	1	0	3.017647e+01
475.749969	1.279528	city	10	1	0.857943	0.857943	0	1	0	0	CorrectCommission	1.424935	0.708065	1	0	3.064706e+01
477.029449	1.279470	city	4	1	1.497468	1.497468	0	1	0	0	CorrectCommission	0.664121	0.708239	1	0	3.111765e+01
478.308960	1.279549	city	10	1	1.352760	1.352760	0	1	0	0	CorrectCommission	0.191421	0.709891	1	0	3.158824e+01
479.588531	1.279582	mountain	9	1	1.047928	1.047928	0	0	1	0	CommissionError	0.804336	0.713099	1	0	3.205882e+01
480.868195	1.279724	city	2	1	1.658245	1.658245	0	1	0	0	CorrectCommission	1.189310	0.717915	1	0	3.252941e+01
482.147858	1.279595	city	4	1	1.070503	1.070503	0	1	0	0	CorrectCommission	0.730594	0.724350	1	0	33
483.427429	1.279553	city	7	1	1.400619	1.400619	0	1	0	0	CorrectCommission	0.347754	0.732397	1	0	3.347059e+01
484.706970	1.279558	city	4	1	1.082106	1.082106	0	1	0	0	CorrectCommission	0.692690	0.741997	1	0	3.394118e+01
485.986542	1.279600	city	1	1	1.522715	1.522715	0	1	0	0	CorrectCommission	0.746592	0.752979	1	0	3.441176e+01
487.266144	1.279595	city	7	1	1.123912	1.123912	0	1	0	0	CorrectCommission	0.556128	0.765164	1	0	3.488235e+01
488.552338	1.292758	city	2	0	0.000000	1.278969	0	0	0	1	OmissionError	0.049622	0.778356	1	0	3.535294e+01
489.838562	1.279711	city	9	1	1.669530	1.669530	0	1	0	0	CorrectCommission	1.226173	0.792486	0	0	3.582353e+01
491.118225	1.279608	city	4	1	1.977236	1.977236	0	1	0	0	CorrectCommission	2.231319	0.807588	0	0	3.629412e+01
492.397797	1.279550	city	3	1	1.550662	1.550662	0	1	0	0	CorrectCommission	0.837882	0.823854	0	0	3.676471e+01
493.677399	1.279625	city	7	0	0.000000	1.285476	0	0	0	1	OmissionError	0.028367	0.841693	0	0	3.723529e+01
494.963562	1.292714	city	4	1	1.152926	1.152926	0	1	0	0	CorrectCommission	0.461353	0.861618	0	0	3.770588e+01
496.249786	1.279746	city	9	1	1.124257	1.124257	0	1	0	0	CorrectCommission	0.555002	0.884112	0	0	3.817647e+01
497.529388	1.279466	city	5	1	0.764646	0.764646	0	1	0	0	CorrectCommission	1.729698	0.909563	0	0	3.864706e+01
498.815643	1.293028	city	9	1	1.349735	1.349735	0	1	0	0	CorrectCommission	0.181540	0.938132	0	0	3.911765e+01
500.101929	1.279555	city	8	1	0.920766	0.920766	0	1	0	0	CorrectCommission	1.219719	0.969747	0	0	3.958824e+01
501.381500	1.279603	city	1	1	0.992365	0.992365	0	1	0	0	CorrectCommission	0.985835	1.003966	0	0	4.005882e+01
502.661041	1.279426	city	4	1	1.072420	1.072420	0	1	0	0	CorrectCommission	0.724331	1.040109	0	0	4.052941e+01
503.300751	8.424224	break	0	0	0.964376	0.964376	0	0	0	0	ThoughtProbe	1.077266	1.077266	0	41	41
