onset	duration	trial_type	image_type	Press	ReactionTime	ReactionTime_Interpolated	CorrectOmission	CorrectCommission	CommissionError	OmissionError	response_type	nonsmoothVarianceTimeCourse	VarianceTimeCourse	In_the_Zone	ThoughtProbe	ThoughtProbe_Interpolated
0.653160	1.279586	mountain	1	0	0.000000	1.214556	1	0	0	0	CorrectOmission	0.176755	0.176755	1	0	57
1.932739	1.279572	city	4	1	1.081173	1.081173	0	1	0	0	CorrectCommission	0.901431	0.284998	1	0	57
3.218901	1.292750	city	8	1	0.947789	0.947789	0	1	0	0	CorrectCommission	1.626107	0.386857	1	0	57
4.505147	1.279742	city	10	1	0.916367	0.916367	0	1	0	0	CorrectCommission	1.796822	0.476709	1	0	57
5.784807	1.279578	city	5	1	0.968052	0.968052	0	1	0	0	CorrectCommission	1.516016	0.550316	1	0	57
7.064366	1.279540	city	9	1	1.071265	1.071265	0	1	0	0	CorrectCommission	0.955260	0.605193	1	0	57
8.350526	1.292780	city	3	1	1.300394	1.300394	0	1	0	0	CorrectCommission	0.289600	0.640689	1	0	57
9.636704	1.279578	mountain	3	0	0.000000	1.385208	1	0	0	0	CorrectOmission	0.750400	0.657846	1	0	57
10.916284	1.279580	city	7	1	1.341043	1.341043	0	1	0	0	CorrectCommission	0.510451	0.658957	1	0	57
12.202529	1.292910	city	5	1	1.183234	1.183234	0	1	0	0	CorrectCommission	0.346932	0.647161	1	0	57
13.508860	1.319752	city	10	1	1.007183	1.007183	0	1	0	0	CorrectCommission	1.303416	0.625957	1	0	57
14.808541	1.279610	city	3	1	1.071364	1.071364	0	1	0	0	CorrectCommission	0.954720	0.598766	1	0	57
16.088118	1.279544	city	10	1	1.253353	1.253353	0	1	0	0	CorrectCommission	0.034027	0.568719	1	0	57
17.381010	1.306240	city	2	1	1.233306	1.233306	0	1	0	0	CorrectCommission	0.074888	0.538468	1	0	57
18.673922	1.279585	city	5	1	1.144517	1.144517	0	1	0	0	CorrectCommission	0.557278	0.510116	1	0	57
19.953491	1.279553	city	4	1	1.070178	1.070178	0	1	0	0	CorrectCommission	0.961166	0.485276	1	0	57
21.233068	1.279601	city	7	1	1.262890	1.262890	0	1	0	0	CorrectCommission	0.085843	0.465175	1	0	57
22.512569	1.279402	city	3	1	1.229303	1.229303	0	1	0	0	CorrectCommission	0.096637	0.450793	1	0	57
23.792063	1.279583	mountain	8	0	0.000000	1.330723	1	0	0	0	CorrectOmission	0.454380	0.442937	1	0	57
25.071730	1.279753	city	8	1	1.395997	1.395997	0	1	0	0	CorrectCommission	0.809015	0.442287	1	0	57
26.358046	1.292880	city	1	1	1.253972	1.253972	0	1	0	0	CorrectCommission	0.037391	0.449390	1	0	57
27.650877	1.292781	city	8	1	1.124158	1.124158	0	1	0	0	CorrectCommission	0.667888	0.464601	1	0	57
28.937126	1.279720	city	9	1	1.283559	1.283559	0	1	0	0	CorrectCommission	0.198139	0.487944	1	0	57
30.216770	1.279567	city	5	1	1.284132	1.284132	0	1	0	0	CorrectCommission	0.201251	0.518961	1	0	57
31.496355	1.279602	city	9	1	1.193292	1.193292	0	1	0	0	CorrectCommission	0.292285	0.556620	1	0	57
32.775852	1.279392	city	4	1	1.241849	1.241849	0	1	0	0	CorrectCommission	0.028471	0.599277	1	0	57
34.055344	1.279593	city	8	1	1.095424	1.095424	0	1	0	0	CorrectCommission	0.824002	0.644741	1	0	57
35.341682	1.293088	city	5	1	1.157581	1.157581	0	1	0	0	CorrectCommission	0.486304	0.690399	0	0	57
36.641251	1.306047	city	2	1	1.059580	1.059580	0	1	0	0	CorrectCommission	1.018741	0.733525	0	0	57
37.947483	1.306419	city	5	1	0.924666	0.924666	0	1	0	0	CorrectCommission	1.751731	0.771527	0	0	57
39.240475	1.279560	city	6	1	1.198628	1.198628	0	1	0	0	CorrectCommission	0.263294	0.802272	0	0	57
40.526627	1.292744	city	8	1	1.117418	1.117418	0	1	0	0	CorrectCommission	0.704508	0.824399	0	0	57
41.826199	1.306396	city	9	1	0.889948	0.889948	0	1	0	0	CorrectCommission	1.940358	0.837387	0	0	57
43.119198	1.279607	city	2	1	0.969064	0.969064	0	1	0	0	CorrectCommission	1.510521	0.841619	0	0	57
44.418785	1.319567	city	1	1	1.060519	1.060519	0	1	0	0	CorrectCommission	1.013641	0.838319	0	0	57
45.731590	1.306046	city	3	1	1.084510	1.084510	0	1	0	0	CorrectCommission	0.883299	0.829272	0	0	57
47.024487	1.279740	city	5	1	1.198364	1.198364	0	1	0	0	CorrectCommission	0.264730	0.816509	0	0	57
48.304157	1.279603	city	7	1	1.311628	1.311628	0	1	0	0	CorrectCommission	0.350635	0.801960	0	0	57
49.590412	1.292911	city	4	1	1.206647	1.206647	0	1	0	0	CorrectCommission	0.219729	0.787197	0	0	57
50.236870	11.476223	break	0	0	0.000000	1.195923	0	0	0	0	ThoughtProbe	0.277988	0.773258	0	57	57
62.352833	1.279482	city	2	1	1.342823	1.342823	0	1	0	0	CorrectCommission	0.520120	0.760609	0	0	5.636957e+01
63.632412	1.279678	city	9	1	1.710711	1.710711	0	1	0	0	CorrectCommission	2.518861	0.749206	0	0	5.573913e+01
64.912033	1.279556	city	3	1	1.350167	1.350167	0	1	0	0	CorrectCommission	0.560020	0.738656	0	0	5.510870e+01
66.191528	1.279447	city	5	1	1.124043	1.124043	0	1	0	0	CorrectCommission	0.668515	0.728450	0	0	5.447826e+01
67.471031	1.279546	city	9	1	1.093663	1.093663	0	1	0	0	CorrectCommission	0.833569	0.718026	0	0	5.384783e+01
68.750671	1.279743	city	4	1	1.124991	1.124991	0	1	0	0	CorrectCommission	0.663362	0.706897	0	0	5.321739e+01
70.030258	1.279425	mountain	8	0	0.000000	1.270061	1	0	0	0	CorrectOmission	0.124805	0.694694	0	0	5.258696e+01
71.309837	1.279732	city	3	1	1.323929	1.323929	0	1	0	0	CorrectCommission	0.417469	0.681185	0	0	5.195652e+01
72.596115	1.292833	city	2	1	1.081651	1.081651	0	1	0	0	CorrectCommission	0.898833	0.666236	0	0	5.132609e+01
73.882362	1.279659	city	8	1	1.071264	1.071264	0	1	0	0	CorrectCommission	0.955263	0.649880	1	0	5.069565e+01
75.161980	1.279574	mountain	9	0	0.000000	1.098037	1	0	0	0	CorrectOmission	0.809806	0.632335	1	0	5.006522e+01
76.441559	1.279582	city	1	1	1.127234	1.127234	0	1	0	0	CorrectCommission	0.651176	0.614081	1	0	4.943478e+01
77.721138	1.279577	city	4	1	1.124122	1.124122	0	1	0	0	CorrectCommission	0.668087	0.595945	1	0	4.880435e+01
79.000717	1.279578	mountain	3	0	0.000000	1.173778	1	0	0	0	CorrectOmission	0.398306	0.579078	1	0	4.817391e+01
80.280304	1.279604	city	7	1	1.175036	1.175036	0	1	0	0	CorrectCommission	0.391467	0.564939	1	0	4.754348e+01
81.559891	1.279560	city	5	1	1.026732	1.026732	0	1	0	0	CorrectCommission	1.197208	0.555200	1	0	4.691304e+01
82.839470	1.279604	city	10	1	1.283775	1.283775	0	1	0	0	CorrectCommission	0.199311	0.551593	1	0	4.628261e+01
84.119011	1.279471	city	8	1	1.207158	1.207158	0	1	0	0	CorrectCommission	0.216949	0.555668	1	0	4.565217e+01
85.398499	1.279516	city	7	1	1.231512	1.231512	0	1	0	0	CorrectCommission	0.084634	0.568559	1	0	4.502174e+01
86.678032	1.279552	city	8	1	1.343082	1.343082	0	1	0	0	CorrectCommission	0.521529	0.590757	1	0	4.439130e+01
87.957603	1.279584	city	5	1	1.291327	1.291327	0	1	0	0	CorrectCommission	0.240339	0.621926	1	0	4.376087e+01
89.237274	1.279765	city	9	1	1.403111	1.403111	0	1	0	0	CorrectCommission	0.847668	0.660833	0	0	4.313043e+01
90.516945	1.279575	city	4	1	1.296279	1.296279	0	1	0	0	CorrectCommission	0.267247	0.705399	0	0	4.250000e+01
91.796486	1.279502	city	1	1	1.209658	1.209658	0	1	0	0	CorrectCommission	0.203368	0.752820	0	0	4.186957e+01
93.076042	1.279605	city	6	1	1.129424	1.129424	0	1	0	0	CorrectCommission	0.639280	0.799976	0	0	4.123913e+01
94.355606	1.279525	city	9	1	1.040105	1.040105	0	1	0	0	CorrectCommission	1.124554	0.843704	0	0	4.060870e+01
95.641785	1.292833	city	8	1	0.924219	0.924219	0	1	0	0	CorrectCommission	1.754165	0.881255	0	0	3.997826e+01
96.928085	1.279764	city	4	1	0.961763	0.961763	0	1	0	0	CorrectCommission	1.550187	0.910633	0	0	3.934783e+01
98.207741	1.279562	city	2	1	0.869767	0.869767	0	1	0	0	CorrectCommission	2.049998	0.930851	0	0	3.871739e+01
99.487312	1.279571	city	1	1	1.126313	1.126313	0	1	0	0	CorrectCommission	0.656181	0.941930	0	0	3.808696e+01
100.766899	1.279611	city	2	1	1.093360	1.093360	0	1	0	0	CorrectCommission	0.835214	0.944837	0	0	3.745652e+01
102.046410	1.279409	city	6	1	1.047857	1.047857	0	1	0	0	CorrectCommission	1.082432	0.941133	0	0	3.682609e+01
103.332558	1.292884	mountain	4	0	0.000000	1.234482	1	0	0	0	CorrectOmission	0.068497	0.932673	0	0	3.619565e+01
104.618805	1.279604	city	4	1	1.347337	1.347337	0	1	0	0	CorrectCommission	0.544647	0.921233	0	0	3.556522e+01
105.898460	1.279716	city	5	1	1.080526	1.080526	0	1	0	0	CorrectCommission	0.904944	0.908195	0	0	3.493478e+01
107.178116	1.279583	city	10	1	0.826830	0.826830	0	1	0	0	CorrectCommission	2.283281	0.894363	0	0	3.430435e+01
108.457695	1.279575	city	6	1	1.244153	1.244153	0	1	0	0	CorrectCommission	0.015953	0.879913	0	0	3.367391e+01
109.737198	1.279444	city	3	1	1.187552	1.187552	0	1	0	0	CorrectCommission	0.323471	0.864585	0	0	3.304348e+01
111.016792	1.279733	city	8	1	1.101693	1.101693	0	1	0	0	CorrectCommission	0.789944	0.847771	0	0	3.241304e+01
112.296440	1.279565	city	9	1	1.016923	1.016923	0	1	0	0	CorrectCommission	1.250501	0.828817	0	0	3.178261e+01
113.575935	1.279433	city	2	1	1.102978	1.102978	0	1	0	0	CorrectCommission	0.782959	0.807301	0	0	3.115217e+01
114.855515	1.279722	city	9	1	1.621979	1.621979	0	1	0	0	CorrectCommission	2.036780	0.783231	0	0	3.052174e+01
116.135193	1.279630	city	5	1	1.233182	1.233182	0	1	0	0	CorrectCommission	0.075559	0.757118	0	0	2.989130e+01
117.414772	1.279532	city	2	1	0.890812	0.890812	0	1	0	0	CorrectCommission	1.935662	0.730015	0	0	2.926087e+01
118.694336	1.279602	city	5	1	1.234011	1.234011	0	1	0	0	CorrectCommission	0.071060	0.703224	0	0	2.863043e+01
119.334137	12.449183	break	0	0	0.000000	1.250655	0	0	0	0	ThoughtProbe	0.019371	0.678180	0	28	28
132.483032	1.399407	city	1	1	1.210658	1.210658	0	1	0	0	CorrectCommission	0.197934	0.656044	1	0	2.767500e+01
133.829269	1.293093	city	9	1	1.383931	1.383931	0	1	0	0	CorrectCommission	0.743461	0.637465	1	0	2.735000e+01
135.135620	1.319586	city	2	1	1.287674	1.287674	0	1	0	0	CorrectCommission	0.220494	0.622411	1	0	2.702500e+01
136.435074	1.279337	city	3	1	1.140058	1.140058	0	1	0	0	CorrectCommission	0.581505	0.610177	1	0	2.670000e+01
137.747971	1.346450	city	5	1	1.212022	1.212022	0	1	0	0	CorrectCommission	0.190522	0.599459	1	0	2.637500e+01
139.074310	1.306225	city	8	1	1.049395	1.049395	0	1	0	0	CorrectCommission	1.074079	0.588646	1	0	2.605000e+01
140.387192	1.319552	mountain	7	1	1.153270	1.153270	0	0	1	0	CommissionError	0.509724	0.576068	1	0	2.572500e+01
141.693359	1.292775	city	5	1	1.555310	1.555310	0	1	0	0	CorrectCommission	1.674565	0.560358	1	0	2.540000e+01
143.019516	1.359550	city	7	1	1.381223	1.381223	0	1	0	0	CorrectCommission	0.728750	0.540660	1	0	2.507500e+01
144.345825	1.293062	city	5	1	1.242739	1.242739	0	1	0	0	CorrectCommission	0.023637	0.516827	1	0	2.475000e+01
145.638809	1.292886	city	2	1	1.037529	1.037529	0	1	0	0	CorrectCommission	1.138545	0.489397	1	0	2.442500e+01
146.931625	1.292772	city	7	1	1.195764	1.195764	0	1	0	0	CorrectCommission	0.278855	0.459466	1	0	2.410000e+01
148.217789	1.279552	mountain	6	0	0.000000	1.222429	1	0	0	0	CorrectOmission	0.133985	0.428618	1	0	2.377500e+01
149.497375	1.279610	city	8	1	1.208482	1.208482	0	1	0	0	CorrectCommission	0.209756	0.398621	1	0	2.345000e+01
150.783554	1.292734	city	1	1	1.244883	1.244883	0	1	0	0	CorrectCommission	0.011990	0.371220	1	0	2.312500e+01
152.069794	1.279755	city	3	1	1.316474	1.316474	0	1	0	0	CorrectCommission	0.376963	0.347967	1	0	2.280000e+01
153.356125	1.292909	city	4	1	1.153917	1.153917	0	1	0	0	CorrectCommission	0.506208	0.330100	1	0	2.247500e+01
154.649017	1.292875	city	10	1	1.262938	1.262938	0	1	0	0	CorrectCommission	0.086104	0.318437	1	0	2.215000e+01
155.955246	1.319591	city	6	1	1.273135	1.273135	0	1	0	0	CorrectCommission	0.141505	0.313425	1	0	2.182500e+01
157.268234	1.306369	city	2	1	1.169520	1.169520	0	1	0	0	CorrectCommission	0.421437	0.315035	1	0	2.150000e+01
158.567871	1.292927	city	7	1	1.216170	1.216170	0	1	0	0	CorrectCommission	0.167985	0.322875	1	0	2.117500e+01
159.860718	1.292764	city	5	1	1.200850	1.200850	0	1	0	0	CorrectCommission	0.251222	0.336199	1	0	2.085000e+01
161.146912	1.279623	city	1	1	1.240566	1.240566	0	1	0	0	CorrectCommission	0.035443	0.353901	1	0	2.052500e+01
162.433136	1.292828	city	3	1	1.144404	1.144404	0	1	0	0	CorrectCommission	0.557896	0.374626	1	0	2.020000e+01
163.726089	1.293073	mountain	2	0	0.000000	1.219641	1	0	0	0	CorrectOmission	0.149128	0.396875	1	0	1.987500e+01
165.025620	1.305987	city	7	1	1.279626	1.279626	0	1	0	0	CorrectCommission	0.176770	0.419187	1	0	1.955000e+01
166.325195	1.293158	city	8	1	1.137704	1.137704	0	1	0	0	CorrectCommission	0.594295	0.440277	1	0	1.922500e+01
167.618225	1.292911	city	6	1	1.089757	1.089757	0	1	0	0	CorrectCommission	0.854793	0.459219	1	0	1.890000e+01
168.911072	1.292775	city	2	1	1.083021	1.083021	0	1	0	0	CorrectCommission	0.891391	0.475633	1	0	1.857500e+01
170.230591	1.346270	city	5	1	1.196934	1.196934	0	1	0	0	CorrectCommission	0.272499	0.489726	1	0	1.825000e+01
171.543488	1.279529	city	1	1	1.447024	1.447024	0	1	0	0	CorrectCommission	1.086247	0.502289	1	0	1.792500e+01
172.843170	1.319830	city	7	1	1.354344	1.354344	0	1	0	0	CorrectCommission	0.582712	0.514531	1	0	1.760000e+01
174.169388	1.332604	city	6	1	1.342847	1.342847	0	1	0	0	CorrectCommission	0.520253	0.527855	1	0	1.727500e+01
175.488907	1.306425	city	3	1	1.211521	1.211521	0	1	0	0	CorrectCommission	0.193243	0.543524	1	0	1.695000e+01
176.788559	1.292898	city	10	1	1.197030	1.197030	0	1	0	0	CorrectCommission	0.271977	0.562357	1	0	1.662500e+01
178.074722	1.279405	city	6	1	1.287635	1.287635	0	1	0	0	CorrectCommission	0.220282	0.584452	1	0	1.630000e+01
179.354294	1.279753	city	2	1	1.243783	1.243783	0	1	0	0	CorrectCommission	0.017968	0.609114	1	0	1.597500e+01
180.633881	1.279422	city	8	1	1.257446	1.257446	0	1	0	0	CorrectCommission	0.056264	0.634876	1	0	1.565000e+01
181.933441	1.319705	city	1	1	1.273932	1.273932	0	1	0	0	CorrectCommission	0.145832	0.659754	0	0	1.532500e+01
182.593292	9.716776	break	0	0	0.000000	1.557618	0	0	0	0	ThoughtProbe	1.687102	0.681601	0	15	15
192.956512	1.292867	city	4	1	1.731257	1.731257	0	1	0	0	CorrectCommission	2.630488	0.698475	0	0	1.461765e+01
194.242767	1.279652	city	6	1	1.417603	1.417603	0	1	0	0	CorrectCommission	0.926401	0.709024	0	0	1.423529e+01
195.535706	1.306234	city	3	1	1.153965	1.153965	0	1	0	0	CorrectCommission	0.505947	0.712761	0	0	1.385294e+01
196.835281	1.292917	city	4	1	1.154725	1.154725	0	1	0	0	CorrectCommission	0.501820	0.710011	0	0	1.347059e+01
198.128189	1.292900	city	3	1	1.017925	1.017925	0	1	0	0	CorrectCommission	1.245058	0.701820	0	0	1.308824e+01
199.414429	1.279581	city	4	1	1.241466	1.241466	0	1	0	0	CorrectCommission	0.030553	0.689639	0	0	1.270588e+01
200.713943	1.319428	city	5	1	1.220415	1.220415	0	1	0	0	CorrectCommission	0.144924	0.675086	0	0	1.232353e+01
202.020111	1.292913	mountain	9	0	0.000000	1.343108	1	0	0	0	CorrectOmission	0.521668	0.659555	1	0	1.194118e+01
203.313080	1.293038	city	5	1	1.423531	1.423531	0	1	0	0	CorrectCommission	0.958609	0.644036	1	0	1.155882e+01
204.632721	1.346241	city	7	1	1.275671	1.275671	0	1	0	0	CorrectCommission	0.155282	0.629020	1	0	1.117647e+01
205.945587	1.279479	city	8	1	1.143759	1.143759	0	1	0	0	CorrectCommission	0.561398	0.614563	1	0	1.079412e+01
207.231689	1.292730	city	3	1	0.978181	0.978181	0	1	0	0	CorrectCommission	1.460985	0.600401	1	0	1.041176e+01
208.537994	1.319874	city	2	1	1.120516	1.120516	0	1	0	0	CorrectCommission	0.687679	0.586079	1	0	1.002941e+01
209.837692	1.279532	city	3	1	1.133705	1.133705	0	1	0	0	CorrectCommission	0.616019	0.571217	1	0	9.647059e+00
211.143829	1.332731	city	6	1	1.249141	1.249141	0	1	0	0	CorrectCommission	0.011144	0.555586	1	0	9.264706e+00
212.456696	1.293004	city	7	1	1.085104	1.085104	0	1	0	0	CorrectCommission	0.880070	0.539236	1	0	8.882353e+00
213.749695	1.292998	mountain	2	0	0.000000	1.273965	1	0	0	0	CorrectOmission	0.146014	0.522459	1	0	8.500000e+00
215.042648	1.292906	city	1	1	1.422628	1.422628	0	1	0	0	CorrectCommission	0.953702	0.505828	1	0	8.117647e+00
216.335464	1.292723	city	7	1	1.137998	1.137998	0	1	0	0	CorrectCommission	0.592699	0.490045	1	0	7.735294e+00
217.621689	1.279743	city	9	1	1.185571	1.185571	0	1	0	0	CorrectCommission	0.334233	0.475881	1	0	7.352941e+00
218.914688	1.306234	city	7	1	1.272819	1.272819	0	1	0	0	CorrectCommission	0.139787	0.464048	1	0	6.970588e+00
220.220840	1.306082	city	3	1	1.169226	1.169226	0	1	0	0	CorrectCommission	0.423037	0.455074	1	0	6.588235e+00
221.520432	1.293087	city	5	1	1.223965	1.223965	0	1	0	0	CorrectCommission	0.125635	0.449238	1	0	6.205882e+00
222.820084	1.306235	city	10	1	1.097996	1.097996	0	1	0	0	CorrectCommission	0.810030	0.446629	1	0	5.823529e+00
224.139664	1.332912	city	5	1	1.269527	1.269527	0	1	0	0	CorrectCommission	0.121903	0.447040	1	0	5.441176e+00
225.459137	1.306036	city	3	1	1.133879	1.133879	0	1	0	0	CorrectCommission	0.615077	0.450117	1	0	5.058824e+00
226.765366	1.306425	city	1	1	1.187060	1.187060	0	1	0	0	CorrectCommission	0.326141	0.455361	1	0	4.676471e+00
228.078354	1.319542	city	3	1	1.167631	1.167631	0	1	0	0	CorrectCommission	0.431700	0.462343	1	0	4.294118e+00
229.384567	1.292890	city	9	1	1.184590	1.184590	0	1	0	0	CorrectCommission	0.339564	0.470764	1	0	3.911765e+00
230.677490	1.292949	city	8	1	1.191509	1.191509	0	1	0	0	CorrectCommission	0.301970	0.480541	1	0	3.529412e+00
231.977081	1.306232	city	2	1	0.994290	0.994290	0	1	0	0	CorrectCommission	1.373464	0.491861	1	0	3.147059e+00
233.289886	1.319385	city	7	1	1.168259	1.168259	0	1	0	0	CorrectCommission	0.428286	0.505152	1	0	2.764706e+00
234.589386	1.279606	city	4	1	1.178388	1.178388	0	1	0	0	CorrectCommission	0.373260	0.521048	1	0	2.382353e+00
235.229187	12.875758	break	0	0	0.000000	1.276996	0	0	0	0	ThoughtProbe	0.162478	0.540163	1	2	2
248.751465	1.293056	city	1	1	1.352072	1.352072	0	1	0	0	CorrectCommission	0.570368	0.562954	1	0	3.456522e+00
250.057770	1.319562	city	4	1	1.291604	1.291604	0	1	0	0	CorrectCommission	0.241848	0.589491	1	0	4.913043e+00
251.370590	1.306073	city	9	1	1.107042	1.107042	0	1	0	0	CorrectCommission	0.760884	0.619322	1	0	6.369565e+00
252.683502	1.319727	city	10	1	1.120927	1.120927	0	1	0	0	CorrectCommission	0.685443	0.651311	1	0	7.826087e+00
254.009811	1.332916	city	6	1	1.166634	1.166634	0	1	0	0	CorrectCommission	0.437120	0.683717	0	0	9.282609e+00
255.315979	1.279408	mountain	3	0	0.000000	1.187513	1	0	0	0	CorrectOmission	0.323682	0.714290	0	0	1.073913e+01
256.602051	1.292745	city	1	1	1.236485	1.236485	0	1	0	0	CorrectCommission	0.057614	0.740542	0	0	1.219565e+01
257.888397	1.279919	city	10	1	1.366471	1.366471	0	1	0	0	CorrectCommission	0.648600	0.760085	0	0	1.365217e+01
259.181458	1.306232	city	1	1	1.819812	1.819812	0	1	0	0	CorrectCommission	3.111611	0.770957	0	0	1.510870e+01
260.500946	1.332745	city	10	1	1.502104	1.502104	0	1	0	0	CorrectCommission	1.385494	0.771943	0	0	1.656522e+01
261.833832	1.333048	city	6	1	1.454198	1.454198	0	1	0	0	CorrectCommission	1.125219	0.762858	0	0	1.802174e+01
263.160065	1.319383	city	4	1	1.237100	1.237100	0	1	0	0	CorrectCommission	0.054275	0.744514	0	0	1.947826e+01
264.472961	1.306402	city	9	1	1.110399	1.110399	0	1	0	0	CorrectCommission	0.742646	0.718650	0	0	2.093478e+01
265.765961	1.279591	city	5	1	1.031850	1.031850	0	1	0	0	CorrectCommission	1.169399	0.687607	0	0	2.239130e+01
267.045532	1.279586	city	6	1	1.293560	1.293560	0	1	0	0	CorrectCommission	0.252471	0.654052	1	0	2.384783e+01
268.325043	1.279396	city	10	1	1.193991	1.193991	0	1	0	0	CorrectCommission	0.288489	0.620643	1	0	2.530435e+01
269.611237	1.293003	city	3	1	1.249186	1.249186	0	1	0	0	CorrectCommission	0.011389	0.589692	1	0	2.676087e+01
270.904205	1.292963	mountain	7	1	1.156874	1.156874	0	0	1	0	CommissionError	0.490143	0.563021	1	0	2.821739e+01
272.237152	1.372930	city	6	1	1.315008	1.315008	0	1	0	0	CorrectCommission	0.368999	0.541817	1	0	2.967391e+01
273.583405	1.319546	city	9	1	1.126233	1.126233	0	1	0	0	CorrectCommission	0.656617	0.526703	1	0	3.113043e+01
274.922913	1.359490	mountain	1	0	0.000000	1.063819	1	0	0	0	CorrectOmission	0.995715	0.517774	1	0	3.258696e+01
276.275726	1.346130	city	10	1	1.114088	1.114088	0	1	0	0	CorrectCommission	0.722598	0.514707	1	0	3.404348e+01
277.608643	1.319725	city	4	1	1.263366	1.263366	0	1	0	0	CorrectCommission	0.088428	0.516856	1	0	3.550000e+01
278.921509	1.305982	city	7	1	1.270574	1.270574	0	1	0	0	CorrectCommission	0.127588	0.523316	1	0	3.695652e+01
280.234314	1.319653	city	1	1	1.188791	1.188791	0	1	0	0	CorrectCommission	0.316736	0.532985	1	0	3.841304e+01
281.533997	1.279724	city	7	1	1.354151	1.354151	0	1	0	0	CorrectCommission	0.581667	0.544623	1	0	3.986957e+01
282.813629	1.279504	mountain	8	0	0.000000	1.363818	1	0	0	0	CorrectOmission	0.634184	0.556922	1	0	4.132609e+01
284.099884	1.292987	city	3	1	1.240946	1.240946	0	1	0	0	CorrectCommission	0.033380	0.568645	1	0	4.278261e+01
285.412811	1.332891	city	2	1	1.008692	1.008692	0	1	0	0	CorrectCommission	1.295221	0.578756	1	0	4.423913e+01
286.739227	1.319928	city	7	1	1.190904	1.190904	0	1	0	0	CorrectCommission	0.305256	0.586510	1	0	4.569565e+01
288.052124	1.305896	city	10	1	1.001699	1.001699	0	1	0	0	CorrectCommission	1.333214	0.591596	1	0	4.715217e+01
289.344788	1.279393	city	7	1	1.471766	1.471766	0	1	0	0	CorrectCommission	1.220670	0.594159	1	0	4.860870e+01
290.624359	1.279765	city	4	1	1.358558	1.358558	0	1	0	0	CorrectCommission	0.605609	0.594795	1	0	5.006522e+01
291.917297	1.306151	city	10	1	1.211205	1.211205	0	1	0	0	CorrectCommission	0.194963	0.594456	1	0	5.152174e+01
293.230133	1.319468	city	2	1	1.222240	1.222240	0	1	0	0	CorrectCommission	0.135012	0.594213	1	0	5.297826e+01
294.536407	1.293091	city	7	1	1.251196	1.251196	0	1	0	0	CorrectCommission	0.022311	0.595075	1	0	5.443478e+01
295.829376	1.292886	city	9	1	1.117041	1.117041	0	1	0	0	CorrectCommission	0.706559	0.597860	1	0	5.589130e+01
297.122284	1.292929	city	2	1	1.104530	1.104530	0	1	0	0	CorrectCommission	0.774530	0.603039	1	0	5.734783e+01
298.421875	1.306239	city	5	1	1.150961	1.150961	0	1	0	0	CorrectCommission	0.522268	0.610715	1	0	5.880435e+01
299.721375	1.292733	city	4	1	1.148030	1.148030	0	1	0	0	CorrectCommission	0.538191	0.620645	1	0	6.026087e+01
301.027557	1.319638	city	9	1	1.044747	1.044747	0	1	0	0	CorrectCommission	1.099333	0.632283	1	0	6.171739e+01
302.333862	1.292987	city	8	1	1.075630	1.075630	0	1	0	0	CorrectCommission	0.931546	0.644859	1	0	6.317391e+01
303.660065	1.359400	city	6	1	1.248660	1.248660	0	1	0	0	CorrectCommission	0.008531	0.657488	1	0	6.463043e+01
304.999542	1.319575	city	4	1	1.110016	1.110016	0	1	0	0	CorrectCommission	0.744726	0.669249	0	0	6.608696e+01
306.319122	1.319557	city	8	1	1.112027	1.112027	0	1	0	0	CorrectCommission	0.733799	0.679231	0	0	6.754348e+01
310.551056	7.144334	break	0	0	0.000000	1.263284	0	0	0	0	ThoughtProbe	0.087984	0.686618	0	69	69
314.776428	1.306418	city	5	1	1.433221	1.433221	0	1	0	0	CorrectCommission	1.011256	0.690765	0	0	6.794118e+01
316.089325	1.319391	city	8	1	1.491272	1.491272	0	1	0	0	CorrectCommission	1.326647	0.691201	0	0	6.688235e+01
317.395569	1.293060	city	6	1	1.480055	1.480055	0	1	0	0	CorrectCommission	1.265703	0.687716	0	0	6.582353e+01
318.708466	1.332718	mountain	3	0	0.000000	1.384583	1	0	0	0	CorrectOmission	0.747004	0.680377	0	0	6.476471e+01
320.014587	1.279573	city	9	1	1.286310	1.286310	0	1	0	0	CorrectCommission	0.213083	0.669455	0	0	6.370588e+01
321.314270	1.319756	city	4	1	1.266688	1.266688	0	1	0	0	CorrectCommission	0.106475	0.655407	1	0	6.264706e+01
322.640503	1.332755	city	8	1	1.007777	1.007777	0	1	0	0	CorrectCommission	1.300191	0.638762	1	0	6.158824e+01
323.953308	1.292856	city	9	1	1.146682	1.146682	0	1	0	0	CorrectCommission	0.545517	0.620052	1	0	6.052941e+01
325.246277	1.293069	city	8	1	1.211824	1.211824	0	1	0	0	CorrectCommission	0.191598	0.599820	1	0	5.947059e+01
326.545929	1.306238	city	6	1	1.129116	1.129116	0	1	0	0	CorrectCommission	0.640952	0.578566	1	0	5.841176e+01
327.852112	1.306093	city	1	1	1.078117	1.078117	0	1	0	0	CorrectCommission	0.918032	0.556722	1	0	5.735294e+01
329.158264	1.306231	city	4	1	1.176034	1.176034	0	1	0	0	CorrectCommission	0.386045	0.534729	1	0	5.629412e+01
330.451263	1.279737	city	10	1	1.052920	1.052920	0	1	0	0	CorrectCommission	1.054927	0.513010	1	0	5.523529e+01
331.737579	1.292921	city	7	1	1.325963	1.325963	0	1	0	0	CorrectCommission	0.428519	0.491960	1	0	5.417647e+01
333.050415	1.332726	city	4	1	1.261800	1.261800	0	1	0	0	CorrectCommission	0.079922	0.472000	1	0	5.311765e+01
334.369965	1.306406	mountain	5	0	0.000000	1.242214	1	0	0	0	CorrectOmission	0.026489	0.453520	1	0	5.205882e+01
335.682861	1.319393	city	6	1	1.204887	1.204887	0	1	0	0	CorrectCommission	0.229289	0.436864	1	0	51
337.022430	1.359722	city	7	1	1.087500	1.087500	0	1	0	0	CorrectCommission	0.867055	0.422327	1	0	4.994118e+01
338.388733	1.372866	city	5	1	1.142813	1.142813	0	1	0	0	CorrectCommission	0.566539	0.410168	1	0	4.888235e+01
339.741516	1.332732	city	1	1	1.159888	1.159888	0	1	0	0	CorrectCommission	0.473767	0.400600	1	0	4.782353e+01
341.067749	1.319722	city	4	1	1.233624	1.233624	0	1	0	0	CorrectCommission	0.073162	0.393768	1	0	4.676471e+01
342.400635	1.346070	city	1	1	1.207693	1.207693	0	1	0	0	CorrectCommission	0.214046	0.389773	1	0	4.570588e+01
343.720215	1.293093	city	3	1	1.373997	1.373997	0	1	0	0	CorrectCommission	0.689486	0.388588	1	0	4.464706e+01
345.059875	1.386184	city	9	1	1.204793	1.204793	0	1	0	0	CorrectCommission	0.229798	0.390056	1	0	4.358824e+01
346.406006	1.306110	city	3	1	1.289647	1.289647	0	1	0	0	CorrectCommission	0.231214	0.393885	1	0	4.252941e+01
347.732239	1.346329	city	10	1	1.193174	1.193174	0	1	0	0	CorrectCommission	0.292926	0.399624	1	0	4.147059e+01
349.058533	1.306264	city	5	1	1.164567	1.164567	0	1	0	0	CorrectCommission	0.448348	0.406705	1	0	4.041176e+01
350.351379	1.279439	city	1	1	1.235717	1.235717	0	1	0	0	CorrectCommission	0.061790	0.414510	1	0	3.935294e+01
351.637573	1.292969	city	3	1	1.145817	1.145817	0	1	0	0	CorrectCommission	0.550219	0.422452	1	0	3.829412e+01
352.930511	1.292913	city	8	1	1.214508	1.214508	0	1	0	0	CorrectCommission	0.177020	0.430082	1	0	3.723529e+01
354.230042	1.306143	city	10	1	0.940287	0.940287	0	1	0	0	CorrectCommission	1.666867	0.437241	1	0	3.617647e+01
355.536346	1.306420	city	3	1	1.152551	1.152551	0	1	0	0	CorrectCommission	0.513629	0.443985	1	0	3.511765e+01
356.842682	1.306252	city	1	1	1.253639	1.253639	0	1	0	0	CorrectCommission	0.035581	0.450727	1	0	3.405882e+01
357.495789	9.650108	break	0	0	0.000000	1.302827	0	0	0	0	ThoughtProbe	0.302821	0.458103	1	33	33
367.825592	1.359410	city	1	1	1.311038	1.311038	0	1	0	0	CorrectCommission	0.347432	0.466847	1	0	3.357500e+01
369.158447	1.306256	city	2	1	1.289195	1.289195	0	1	0	0	CorrectCommission	0.228756	0.477706	1	0	3.415000e+01
370.458099	1.293042	city	1	1	1.178089	1.178089	0	1	0	0	CorrectCommission	0.374883	0.491290	1	0	3.472500e+01
371.764404	1.319571	city	6	1	1.103546	1.103546	0	1	0	0	CorrectCommission	0.779873	0.507959	1	0	3.530000e+01
373.063934	1.279483	city	9	1	1.323299	1.323299	0	1	0	0	CorrectCommission	0.414048	0.527732	1	0	3.587500e+01
374.376831	1.346350	city	6	1	1.289831	1.289831	0	1	0	0	CorrectCommission	0.232216	0.550290	1	0	3.645000e+01
375.729767	1.359524	city	8	1	1.116171	1.116171	0	1	0	0	CorrectCommission	0.711282	0.574967	1	0	3.702500e+01
377.055908	1.292745	city	1	1	1.177731	1.177731	0	1	0	0	CorrectCommission	0.376828	0.600778	1	0	3.760000e+01
378.342163	1.279743	city	3	1	1.401270	1.401270	0	1	0	0	CorrectCommission	0.837666	0.626543	1	0	3.817500e+01
379.635071	1.306070	city	1	1	1.400155	1.400155	0	1	0	0	CorrectCommission	0.831605	0.650981	1	0	3.875000e+01
380.941284	1.306403	city	5	1	1.368029	1.368029	0	1	0	0	CorrectCommission	0.657065	0.672811	0	0	3.932500e+01
382.247528	1.306070	mountain	2	0	0.000000	1.384083	1	0	0	0	CorrectOmission	0.744285	0.690944	0	0	3.990000e+01
383.547119	1.293071	mountain	5	0	0.000000	1.393545	1	0	0	0	CorrectOmission	0.795696	0.704572	0	0	4.047500e+01
384.846771	1.306279	city	5	1	1.341647	1.341647	0	1	0	0	CorrectCommission	0.513729	0.713297	0	0	4.105000e+01
386.173004	1.346161	city	7	1	1.173616	1.173616	0	1	0	0	CorrectCommission	0.399186	0.717231	0	0	4.162500e+01
387.519135	1.346103	city	10	1	0.840765	0.840765	0	1	0	0	CorrectCommission	2.207566	0.717001	0	0	4.220000e+01
388.845398	1.306401	city	6	1	1.321950	1.321950	0	1	0	0	CorrectCommission	0.406719	0.713644	0	0	4.277500e+01
390.151703	1.306245	mountain	5	0	0.000000	1.444350	1	0	0	0	CorrectOmission	1.071715	0.708593	0	0	4.335000e+01
391.457855	1.306045	city	3	1	1.378556	1.378556	0	1	0	0	CorrectCommission	0.714257	0.703336	0	0	4.392500e+01
392.764069	1.306413	city	8	1	1.295162	1.295162	0	1	0	0	CorrectCommission	0.261178	0.699229	0	0	4.450000e+01
394.070343	1.306120	city	5	1	1.193844	1.193844	0	1	0	0	CorrectCommission	0.289286	0.697235	0	0	4.507500e+01
395.389893	1.332985	city	6	1	1.259195	1.259195	0	1	0	0	CorrectCommission	0.065771	0.697717	0	0	4.565000e+01
396.716156	1.319511	city	1	1	1.154380	1.154380	0	1	0	0	CorrectCommission	0.503692	0.700375	0	0	4.622500e+01
398.042389	1.332960	city	6	1	1.211005	1.211005	0	1	0	0	CorrectCommission	0.196051	0.704333	0	0	4.680000e+01
399.368652	1.319573	city	10	1	1.009417	1.009417	0	1	0	0	CorrectCommission	1.291281	0.708361	0	0	4.737500e+01
400.668152	1.279412	city	6	1	1.535527	1.535527	0	1	0	0	CorrectCommission	1.567084	0.711084	0	0	4.795000e+01
401.974365	1.333062	city	10	1	1.083280	1.083280	0	1	0	0	CorrectCommission	0.889982	0.711429	0	0	4.852500e+01
403.313934	1.346067	city	4	1	1.153513	1.153513	0	1	0	0	CorrectCommission	0.508404	0.708836	0	0	4.910000e+01
404.646820	1.319684	city	8	1	0.925357	0.925357	0	1	0	0	CorrectCommission	1.747981	0.703440	0	0	4.967500e+01
405.966461	1.319600	city	6	1	1.230396	1.230396	0	1	0	0	CorrectCommission	0.090696	0.696084	0	0	5.025000e+01
407.272705	1.292902	city	8	1	1.075713	1.075713	0	1	0	0	CorrectCommission	0.931092	0.688277	0	0	5.082500e+01
408.585602	1.332849	city	5	1	1.195414	1.195414	0	1	0	0	CorrectCommission	0.280755	0.681883	0	0	5.140000e+01
409.931824	1.359604	city	9	1	1.240294	1.240294	0	1	0	0	CorrectCommission	0.036921	0.678901	0	0	5.197500e+01
411.284729	1.346223	city	2	1	1.101590	1.101590	0	1	0	0	CorrectCommission	0.790503	0.681135	0	0	5.255000e+01
412.617554	1.319406	city	6	1	1.354378	1.354378	0	1	0	0	CorrectCommission	0.582897	0.689906	0	0	5.312500e+01
413.923767	1.293069	city	4	1	1.330124	1.330124	0	1	0	0	CorrectCommission	0.451127	0.705875	0	0	5.370000e+01
415.263336	1.386045	city	1	1	1.277475	1.277475	0	1	0	0	CorrectCommission	0.165081	0.728936	0	0	5.427500e+01
416.616150	1.319572	city	4	1	0.927799	0.927799	0	1	0	0	CorrectCommission	1.734714	0.758148	0	0	5.485000e+01
417.935730	1.319610	city	1	1	1.354453	1.354453	0	1	0	0	CorrectCommission	0.583306	0.791798	0	0	5.542500e+01
418.595551	9.676771	break	0	0	0.000000	1.313457	0	0	0	0	ThoughtProbe	0.360572	0.827610	0	56	56
428.932190	1.319752	city	7	1	1.153444	1.153444	0	1	0	0	CorrectCommission	0.508781	0.862999	0	0	5.494118e+01
430.265076	1.346042	city	6	1	1.223048	1.223048	0	1	0	0	CorrectCommission	0.130617	0.895320	0	0	5.388235e+01
431.584656	1.293089	mountain	2	0	0.000000	1.554678	1	0	0	0	CorrectOmission	1.671130	0.922260	0	0	5.282353e+01
432.877625	1.292886	city	7	1	1.684625	1.684625	0	1	0	0	CorrectCommission	2.377138	0.942174	0	0	5.176471e+01
434.197205	1.346227	city	5	1	1.149185	1.149185	0	1	0	0	CorrectCommission	0.531917	0.954420	0	0	5.070588e+01
435.516663	1.292743	city	3	1	0.818060	0.818060	0	1	0	0	CorrectCommission	2.330923	0.959583	0	0	4.964706e+01
436.849579	1.373048	city	1	1	1.343300	1.343300	0	1	0	0	CorrectCommission	0.522712	0.959308	0	0	4.858824e+01
438.195831	1.319495	city	5	1	1.441221	1.441221	0	1	0	0	CorrectCommission	1.054718	0.956245	0	0	4.752941e+01
439.522064	1.332961	city	7	1	1.433955	1.433955	0	1	0	0	CorrectCommission	1.015242	0.953571	0	0	4.647059e+01
440.855042	1.332964	city	6	1	1.362163	1.362163	0	1	0	0	CorrectCommission	0.625195	0.954497	0	0	4.541176e+01
442.187866	1.332682	city	2	1	1.161976	1.161976	0	1	0	0	CorrectCommission	0.462423	0.961646	0	0	4.435294e+01
443.500732	1.293052	city	10	1	1.212663	1.212663	0	1	0	0	CorrectCommission	0.187043	0.976629	0	0	4.329412e+01
444.793671	1.292833	city	1	1	1.159599	1.159599	0	1	0	0	CorrectCommission	0.475339	0.999636	0	0	4.223529e+01
446.106537	1.332892	city	2	1	1.063086	1.063086	0	1	0	0	CorrectCommission	0.999698	1.029341	0	0	4.117647e+01
447.412720	1.279501	city	9	1	1.333736	1.333736	0	1	0	0	CorrectCommission	0.470748	1.063052	0	0	4.011765e+01
448.718964	1.333002	city	2	1	1.467159	1.467159	0	1	0	0	CorrectCommission	1.195640	1.097117	0	0	3.905882e+01
450.031952	1.292959	city	8	1	1.633825	1.633825	0	1	0	0	CorrectCommission	2.101137	1.127418	0	0	38
451.331573	1.306264	mountain	9	0	0.000000	1.399347	1	0	0	0	CorrectOmission	0.827216	1.150073	0	0	3.694118e+01
452.631073	1.292748	city	5	1	1.341269	1.341269	0	1	0	0	CorrectCommission	0.511678	1.162130	0	0	3.588235e+01
453.943909	1.332923	city	6	1	2.037134	2.037134	0	1	0	0	CorrectCommission	4.292324	1.161927	0	0	3.482353e+01
455.283447	1.346177	city	8	0	0.000000	1.723653	0	0	0	1	OmissionError	2.589177	1.149317	0	0	3.376471e+01
456.616425	1.319736	city	3	1	1.178498	1.178498	0	1	0	0	CorrectCommission	0.372659	1.125770	0	0	3.270588e+01
457.969391	1.386209	city	10	1	1.179340	1.179340	0	1	0	0	CorrectCommission	0.368084	1.093937	0	0	3.164706e+01
459.315521	1.306063	city	4	0	0.000000	1.323013	0	0	0	1	OmissionError	0.412493	1.057087	0	0	3.058824e+01
460.628326	1.319564	city	2	1	1.420396	1.420396	0	1	0	0	CorrectCommission	0.941576	1.018536	0	0	2.952941e+01
461.967987	1.359730	city	8	1	1.282369	1.282369	0	1	0	0	CorrectCommission	0.191671	0.981060	0	0	2.847059e+01
463.300964	1.306240	city	1	1	1.225575	1.225575	0	1	0	0	CorrectCommission	0.116889	0.946588	0	0	2.741176e+01
464.607117	1.306078	city	7	1	1.567068	1.567068	0	1	0	0	CorrectCommission	1.738445	0.915911	0	0	2.635294e+01
465.919952	1.319569	city	9	1	1.583245	1.583245	0	1	0	0	CorrectCommission	1.826335	0.888762	0	0	2.529412e+01
467.246277	1.333056	city	7	1	1.284555	1.284555	0	1	0	0	CorrectCommission	0.203548	0.864063	0	0	2.423529e+01
468.579254	1.332891	city	1	1	1.084083	1.084083	0	1	0	0	CorrectCommission	0.885619	0.840320	0	0	2.317647e+01
469.892090	1.292816	city	5	1	1.329482	1.329482	0	1	0	0	CorrectCommission	0.447637	0.815951	0	0	2.211765e+01
471.211639	1.346289	city	3	1	1.146183	1.146183	0	1	0	0	CorrectCommission	0.548227	0.789765	0	0	2.105882e+01
475.543579	7.317594	break	0	0	0.000000	1.469684	0	0	0	0	ThoughtProbe	1.209357	0.761304	0	20	20
479.842133	1.279516	city	5	1	1.675445	1.675445	0	1	0	0	CorrectCommission	2.327261	0.731016	0	0	2.002174e+01
481.121643	1.279488	city	2	1	1.138928	1.138928	0	1	0	0	CorrectCommission	0.587645	0.700331	0	0	2.004348e+01
482.401245	1.279727	city	5	1	1.251668	1.251668	0	1	0	0	CorrectCommission	0.024872	0.671695	0	0	2.006522e+01
483.680908	1.279583	city	8	1	1.106358	1.106358	0	1	0	0	CorrectCommission	0.764599	0.648142	1	0	2.008696e+01
484.960480	1.279583	city	9	1	1.284119	1.284119	0	1	0	0	CorrectCommission	0.201179	0.632905	1	0	2.010870e+01
486.239990	1.279412	city	2	1	1.288974	1.288974	0	1	0	0	CorrectCommission	0.227559	0.629126	1	0	2.013043e+01
487.519562	1.279751	city	8	1	1.206394	1.206394	0	1	0	0	CorrectCommission	0.221102	0.639402	1	0	2.015217e+01
488.799255	1.279592	mountain	1	0	0.000000	1.188415	1	0	0	0	CorrectOmission	0.318778	0.665381	0	0	2.017391e+01
490.078735	1.279402	city	1	1	1.238734	1.238734	0	1	0	0	CorrectCommission	0.045395	0.707648	0	0	2.019565e+01
491.364899	1.292932	city	7	1	1.361045	1.361045	0	1	0	0	CorrectCommission	0.619122	0.765721	0	0	2.021739e+01
492.651245	1.279735	city	8	1	1.284337	1.284337	0	1	0	0	CorrectCommission	0.202363	0.838025	0	0	2.023913e+01
493.930878	1.279545	city	3	1	1.368401	1.368401	0	1	0	0	CorrectCommission	0.659088	0.922196	0	0	2.026087e+01
495.210388	1.279458	mountain	8	0	0.000000	1.475472	1	0	0	0	CorrectOmission	1.240806	1.015278	0	0	2.028261e+01
496.489899	1.279552	city	6	1	1.552990	1.552990	0	1	0	0	CorrectCommission	1.661959	1.114091	0	0	2.030435e+01
497.769531	1.279741	city	1	1	1.548394	1.548394	0	1	0	0	CorrectCommission	1.636988	1.215482	0	0	2.032609e+01
499.049164	1.279509	city	6	1	1.642806	1.642806	0	1	0	0	CorrectCommission	2.149930	1.316468	0	0	2.034783e+01
500.328735	1.279644	mountain	10	0	0.000000	1.468509	1	0	0	0	CorrectOmission	1.202971	1.414318	0	0	2.036957e+01
501.608337	1.279576	city	4	1	1.321402	1.321402	0	1	0	0	CorrectCommission	0.403741	1.506604	0	0	2.039130e+01
502.887848	1.279451	city	2	1	1.497386	1.497386	0	1	0	0	CorrectCommission	1.359865	1.591122	0	0	2.041304e+01
504.167694	1.280217	city	10	1	1.395657	1.395657	0	1	0	0	CorrectCommission	0.807167	1.665843	0	0	2.043478e+01
505.447327	1.279074	city	2	1	1.509542	1.509542	0	1	0	0	CorrectCommission	1.425906	1.728970	0	0	2.045652e+01
506.739990	1.306261	city	7	1	2.222499	2.222499	0	1	0	0	CorrectCommission	5.299412	1.778923	0	0	2.047826e+01
508.032898	1.279555	mountain	8	0	0.000000	1.937843	1	0	0	0	CorrectOmission	3.752873	1.814293	0	0	2.050000e+01
509.312500	1.279603	city	6	1	1.334911	1.334911	0	1	0	0	CorrectCommission	0.477136	1.834067	0	0	2.052174e+01
510.592072	1.279553	city	3	1	1.093041	1.093041	0	1	0	0	CorrectCommission	0.836948	1.837510	0	0	2.054348e+01
511.871613	1.279512	city	2	1	1.532079	1.532079	0	1	0	0	CorrectCommission	1.548351	1.824055	0	0	2.056522e+01
513.151184	1.279653	city	10	1	1.444712	1.444712	0	1	0	0	CorrectCommission	1.073683	1.793413	0	0	2.058696e+01
514.430725	1.279428	city	3	1	1.532860	1.532860	0	1	0	0	CorrectCommission	1.552595	1.745706	0	0	2.060870e+01
515.710327	1.279728	city	4	1	1.988235	1.988235	0	1	0	0	CorrectCommission	4.026656	1.681620	0	0	2.063043e+01
516.996643	1.292930	city	2	1	1.670665	1.670665	0	1	0	0	CorrectCommission	2.301290	1.602601	0	0	2.065217e+01
518.282898	1.279554	city	7	1	1.777535	1.777535	0	1	0	0	CorrectCommission	2.881919	1.511232	0	0	2.067391e+01
519.562439	1.279601	city	5	1	1.390899	1.390899	0	1	0	0	CorrectCommission	0.781316	1.411203	0	0	2.069565e+01
520.841919	1.279394	city	4	1	1.423363	1.423363	0	1	0	0	CorrectCommission	0.957694	1.307438	0	0	2.071739e+01
522.121521	1.279741	city	6	1	1.071039	1.071039	0	1	0	0	CorrectCommission	0.956487	1.205796	0	0	2.073913e+01
523.401184	1.279579	city	3	1	1.395573	1.395573	0	1	0	0	CorrectCommission	0.806711	1.112816	0	0	2.076087e+01
524.680786	1.279602	city	2	1	1.337431	1.337431	0	1	0	0	CorrectCommission	0.490827	1.035303	0	0	2.078261e+01
525.960327	1.279555	city	9	1	1.228292	1.228292	0	1	0	0	CorrectCommission	0.102129	0.979861	0	0	2.080435e+01
527.239868	1.279511	city	8	1	1.123487	1.123487	0	1	0	0	CorrectCommission	0.671538	0.952408	0	0	2.082609e+01
528.519409	1.279503	city	1	1	1.078410	1.078410	0	1	0	0	CorrectCommission	0.916439	0.957716	0	0	2.084783e+01
529.798889	1.279561	city	10	1	1.337581	1.337581	0	1	0	0	CorrectCommission	0.491640	0.999004	0	0	2.086957e+01
531.078552	1.279725	city	9	1	1.345292	1.345292	0	1	0	0	CorrectCommission	0.533534	1.077548	0	0	2.089130e+01
532.358215	1.279594	city	1	1	1.228472	1.228472	0	1	0	0	CorrectCommission	0.101149	1.192358	0	0	2.091304e+01
533.637695	1.279339	city	10	1	1.182717	1.182717	0	1	0	0	CorrectCommission	0.349737	1.340101	0	0	2.093478e+01
534.917175	1.279659	city	5	1	1.247633	1.247633	0	1	0	0	CorrectCommission	0.002952	1.515007	0	0	2.095652e+01
536.196838	1.279615	city	4	1	1.423485	1.423485	0	1	0	0	CorrectCommission	0.958357	1.709322	0	0	2.097826e+01
536.836609	12.449495	break	0	0	0.000000	1.599337	0	0	0	0	ThoughtProbe	1.913762	1.913762	0	21	21
