onset	duration	trial_type	image_type	Press	ReactionTime	ReactionTime_Interpolated	CorrectOmission	CorrectCommission	CommissionError	OmissionError	response_type	nonsmoothVarianceTimeCourse	VarianceTimeCourse	In_the_Zone	ThoughtProbe	ThoughtProbe_Interpolated
0.653014	1.279551	city	8	1	1.303809	1.303809	0	1	0	0	CorrectCommission	0.069475	0.069475	1	0	86
1.932496	1.279413	city	3	1	1.175860	1.175860	0	1	0	0	CorrectCommission	0.564335	0.132149	1	0	86
3.211994	1.279583	city	6	1	1.292306	1.292306	0	1	0	0	CorrectCommission	0.012493	0.193463	1	0	86
4.491622	1.279673	city	7	1	1.405524	1.405524	0	1	0	0	CorrectCommission	0.573333	0.252165	1	0	86
5.771233	1.279549	city	2	1	1.287226	1.287226	0	1	0	0	CorrectCommission	0.012669	0.307123	1	0	86
7.057509	1.293003	city	5	1	1.150478	1.150478	0	1	0	0	CorrectCommission	0.690068	0.357440	1	0	86
8.343800	1.279578	mountain	3	0	0.000000	1.188551	1	0	0	0	CorrectOmission	0.501468	0.402447	1	0	86
9.623379	1.279580	city	3	1	1.237947	1.237947	0	1	0	0	CorrectCommission	0.256782	0.441799	1	0	86
10.902890	1.279444	city	10	1	1.135165	1.135165	0	1	0	0	CorrectCommission	0.765923	0.475480	1	0	86
12.195796	1.306367	city	9	1	1.178078	1.178078	0	1	0	0	CorrectCommission	0.553351	0.503742	1	0	86
13.488703	1.279448	city	3	1	1.072444	1.072444	0	1	0	0	CorrectCommission	1.076622	0.527114	1	0	86
14.768202	1.279551	city	6	1	1.154074	1.154074	0	1	0	0	CorrectCommission	0.672255	0.546264	1	0	86
16.047859	1.279763	city	3	1	1.182907	1.182907	0	1	0	0	CorrectCommission	0.529428	0.561913	1	0	86
17.327536	1.279591	city	4	1	1.335344	1.335344	0	1	0	0	CorrectCommission	0.225689	0.574697	1	0	86
18.607117	1.279572	city	10	1	1.197022	1.197022	0	1	0	0	CorrectCommission	0.459509	0.585055	1	0	86
19.886629	1.279452	city	6	1	1.343215	1.343215	0	1	0	0	CorrectCommission	0.264677	0.593170	1	0	86
21.166115	1.279520	city	7	1	1.344599	1.344599	0	1	0	0	CorrectCommission	0.271535	0.599003	1	0	86
22.445745	1.279740	mountain	9	0	0.000000	1.464243	1	0	0	0	CorrectOmission	0.864206	0.602367	1	0	86
23.725348	1.279465	city	6	1	1.563494	1.563494	0	1	0	0	CorrectCommission	1.355858	0.603038	1	0	86
25.004932	1.279705	mountain	8	0	0.000000	1.503700	1	0	0	0	CorrectOmission	1.059659	0.600934	1	0	86
26.284573	1.279574	city	1	1	1.392661	1.392661	0	1	0	0	CorrectCommission	0.509614	0.596242	1	0	86
27.564068	1.279420	city	7	1	1.338178	1.338178	0	1	0	0	CorrectCommission	0.239726	0.589507	1	0	86
28.843653	1.279751	city	8	1	1.124735	1.124735	0	1	0	0	CorrectCommission	0.817591	0.581582	1	0	86
30.129900	1.292743	city	7	1	1.191313	1.191313	0	1	0	0	CorrectCommission	0.487788	0.573546	1	0	86
31.416069	1.279595	mountain	7	0	0.000000	1.201394	1	0	0	0	CorrectOmission	0.437850	0.566633	1	0	86
32.695717	1.279697	city	9	1	1.239506	1.239506	0	1	0	0	CorrectCommission	0.249057	0.562016	1	0	86
33.975311	1.279497	city	7	1	1.390177	1.390177	0	1	0	0	CorrectCommission	0.497309	0.560729	1	0	86
35.254902	1.279679	city	10	1	1.107013	1.107013	0	1	0	0	CorrectCommission	0.905379	0.563494	1	0	86
36.534538	1.279597	city	3	1	1.247563	1.247563	0	1	0	0	CorrectCommission	0.209145	0.570632	1	0	86
37.814114	1.279557	city	9	1	1.177900	1.177900	0	1	0	0	CorrectCommission	0.554232	0.582124	1	0	86
39.093681	1.279575	city	3	1	1.204032	1.204032	0	1	0	0	CorrectCommission	0.424783	0.597580	1	0	86
40.373192	1.279446	city	1	1	1.299378	1.299378	0	1	0	0	CorrectCommission	0.047527	0.616403	1	0	86
41.666023	1.306219	city	5	1	1.498860	1.498860	0	1	0	0	CorrectCommission	1.035686	0.637888	1	0	86
42.958942	1.279615	city	10	1	1.194875	1.194875	0	1	0	0	CorrectCommission	0.470143	0.661357	1	0	86
44.238609	1.279721	city	7	1	1.497122	1.497122	0	1	0	0	CorrectCommission	1.027072	0.686294	1	0	86
45.524914	1.292887	city	6	1	1.054430	1.054430	0	1	0	0	CorrectCommission	1.165854	0.712359	1	0	86
46.817741	1.292769	city	4	1	1.102627	1.102627	0	1	0	0	CorrectCommission	0.927105	0.739366	1	0	86
48.130642	1.333031	city	8	1	1.149896	1.149896	0	1	0	0	CorrectCommission	0.692953	0.767186	1	0	86
49.436951	1.279585	city	4	1	1.245150	1.245150	0	1	0	0	CorrectCommission	0.221099	0.795548	1	0	86
50.729858	1.306233	city	6	1	1.174925	1.174925	0	1	0	0	CorrectCommission	0.568966	0.823876	0	0	86
52.029442	1.292934	city	8	1	1.046030	1.046030	0	1	0	0	CorrectCommission	1.207465	0.851115	0	0	86
53.315525	1.279235	city	10	1	1.142642	1.142642	0	1	0	0	CorrectCommission	0.728884	0.875712	0	0	86
54.595089	1.279891	city	6	1	1.344599	1.344599	0	1	0	0	CorrectCommission	0.271533	0.895742	0	0	86
55.874790	1.279511	city	10	1	1.187563	1.187563	0	1	0	0	CorrectCommission	0.506364	0.909108	0	0	86
57.161053	1.293011	city	4	1	1.419182	1.419182	0	1	0	0	CorrectCommission	0.640990	0.913865	0	0	86
57.807556	9.543388	break	0	0	0.000000	1.818826	0	0	0	0	ThoughtProbe	2.620673	0.908612	0	86	86
67.990707	1.279523	city	1	1	1.956693	1.956693	0	1	0	0	CorrectCommission	3.303617	0.892748	0	0	8.570000e+01
69.277008	1.293084	city	3	1	1.402984	1.402984	0	1	0	0	CorrectCommission	0.560751	0.866739	0	0	8.540000e+01
70.576675	1.306247	city	8	1	1.398627	1.398627	0	1	0	0	CorrectCommission	0.539168	0.832134	0	0	8.510000e+01
71.902908	1.346218	mountain	6	0	0.000000	1.284474	1	0	0	0	CorrectOmission	0.026302	0.791255	1	0	8.480000e+01
73.215759	1.279485	city	6	1	1.187743	1.187743	0	1	0	0	CorrectCommission	0.505470	0.746972	1	0	8.450000e+01
74.495255	1.279499	city	5	1	1.235653	1.235653	0	1	0	0	CorrectCommission	0.268145	0.702289	1	0	8.420000e+01
75.781464	1.292920	city	3	1	1.470632	1.470632	0	1	0	0	CorrectCommission	0.895852	0.660020	1	0	8.390000e+01
77.074455	1.293067	city	1	1	1.315094	1.315094	0	1	0	0	CorrectCommission	0.125377	0.622516	1	0	8.360000e+01
78.360771	1.279566	city	2	1	1.190385	1.190385	0	1	0	0	CorrectCommission	0.492387	0.591568	1	0	8.330000e+01
79.640343	1.279576	city	4	1	1.187998	1.187998	0	1	0	0	CorrectCommission	0.504208	0.568369	1	0	83
80.919930	1.279601	city	6	1	1.084294	1.084294	0	1	0	0	CorrectCommission	1.017921	0.553622	1	0	8.270000e+01
82.212852	1.306236	city	4	1	1.374302	1.374302	0	1	0	0	CorrectCommission	0.418671	0.547615	1	0	8.240000e+01
83.505768	1.279594	city	8	1	1.187487	1.187487	0	1	0	0	CorrectCommission	0.506741	0.550376	1	0	8.210000e+01
84.792007	1.292898	mountain	4	0	0.000000	1.236908	1	0	0	0	CorrectOmission	0.261927	0.561704	1	0	8.180000e+01
86.111572	1.346223	city	4	1	1.299068	1.299068	0	1	0	0	CorrectCommission	0.045987	0.581196	1	0	8.150000e+01
87.424461	1.279556	city	7	1	1.150468	1.150468	0	1	0	0	CorrectCommission	0.690119	0.608224	1	0	8.120000e+01
88.703957	1.279430	city	4	1	1.238783	1.238783	0	1	0	0	CorrectCommission	0.252640	0.641869	1	0	8.090000e+01
89.996796	1.306247	city	8	1	1.101923	1.101923	0	1	0	0	CorrectCommission	0.930594	0.680936	1	0	8.060000e+01
91.289787	1.279742	city	2	1	1.140239	1.140239	0	1	0	0	CorrectCommission	0.740789	0.723903	1	0	8.030000e+01
92.582779	1.306245	city	8	1	1.265981	1.265981	0	1	0	0	CorrectCommission	0.117909	0.768978	1	0	80
93.883446	1.295090	city	6	1	1.048842	1.048842	0	1	0	0	CorrectCommission	1.193537	0.814156	0	0	7.970000e+01
95.176338	1.290696	city	9	1	1.016417	1.016417	0	1	0	0	CorrectCommission	1.354157	0.857302	0	0	7.940000e+01
96.461487	1.279603	city	1	1	1.124954	1.124954	0	1	0	0	CorrectCommission	0.816506	0.896301	0	0	7.910000e+01
97.741035	1.279485	city	5	1	1.139902	1.139902	0	1	0	0	CorrectCommission	0.742460	0.929287	0	0	7.880000e+01
99.020599	1.279649	city	8	1	1.023369	1.023369	0	1	0	0	CorrectCommission	1.319717	0.954723	0	0	7.850000e+01
100.300148	1.279446	mountain	1	0	0.000000	1.037316	1	0	0	0	CorrectOmission	1.250632	0.971588	0	0	7.820000e+01
101.579727	1.279714	city	7	1	1.075729	1.075729	0	1	0	0	CorrectCommission	1.060346	0.979499	0	0	7.790000e+01
102.859375	1.279577	city	6	1	1.032598	1.032598	0	1	0	0	CorrectCommission	1.274003	0.978795	0	0	7.760000e+01
104.145607	1.292896	city	9	1	1.094151	1.094151	0	1	0	0	CorrectCommission	0.969092	0.970482	0	0	7.730000e+01
105.438484	1.292852	city	6	1	0.975370	0.975370	0	1	0	0	CorrectCommission	1.557487	0.956236	0	0	77
106.744698	1.319570	city	4	1	1.152762	1.152762	0	1	0	0	CorrectCommission	0.678757	0.938155	0	0	7.670000e+01
108.044304	1.279642	city	7	1	1.127911	1.127911	0	1	0	0	CorrectCommission	0.801860	0.918609	0	0	7.640000e+01
109.323914	1.279584	city	4	1	1.018482	1.018482	0	1	0	0	CorrectCommission	1.343927	0.899879	0	0	7.610000e+01
110.603500	1.279593	city	8	1	1.134259	1.134259	0	1	0	0	CorrectCommission	0.770412	0.883885	0	0	7.580000e+01
111.889755	1.292916	city	4	1	1.196654	1.196654	0	1	0	0	CorrectCommission	0.461330	0.871973	0	0	7.550000e+01
113.182579	1.292720	city	6	1	1.252589	1.252589	0	1	0	0	CorrectCommission	0.184248	0.864718	0	0	7.520000e+01
114.482147	1.306421	city	5	1	1.272034	1.272034	0	1	0	0	CorrectCommission	0.087925	0.861901	0	0	7.490000e+01
115.781815	1.292910	city	9	1	1.204018	1.204018	0	1	0	0	CorrectCommission	0.424850	0.862601	0	0	7.460000e+01
117.081360	1.306190	city	10	1	1.048691	1.048691	0	1	0	0	CorrectCommission	1.194281	0.865456	0	0	7.430000e+01
117.734459	11.129534	break	0	0	0.000000	1.458676	0	0	0	0	ThoughtProbe	0.836625	0.868963	0	74	74
129.503860	1.279741	city	6	1	1.843013	1.843013	0	1	0	0	CorrectCommission	2.740487	0.871833	0	0	7.302500e+01
130.790192	1.292927	city	2	1	1.610746	1.610746	0	1	0	0	CorrectCommission	1.589923	0.873136	0	0	7.205000e+01
132.103027	1.332731	city	3	1	1.503307	1.503307	0	1	0	0	CorrectCommission	1.057712	0.872488	0	0	7.107500e+01
133.409241	1.279717	city	9	1	1.299488	1.299488	0	1	0	0	CorrectCommission	0.048068	0.869914	0	0	7.010000e+01
134.688843	1.279471	mountain	7	0	0.000000	1.269639	1	0	0	0	CorrectOmission	0.099788	0.865706	0	0	6.912500e+01
135.981674	1.306190	city	5	1	1.255746	1.255746	0	1	0	0	CorrectCommission	0.168611	0.860175	0	0	6.815000e+01
137.281311	1.293094	city	8	1	1.099791	1.099791	0	1	0	0	CorrectCommission	0.941155	0.853503	0	0	6.717500e+01
138.574234	1.292744	city	7	1	1.310281	1.310281	0	1	0	0	CorrectCommission	0.101534	0.845675	0	0	6.620000e+01
139.867050	1.292891	city	8	1	0.976165	0.976165	0	1	0	0	CorrectCommission	1.553548	0.836639	0	0	6.522500e+01
141.186707	1.346417	city	4	1	1.018968	1.018968	0	1	0	0	CorrectCommission	1.341521	0.826387	0	0	6.425000e+01
142.499695	1.279562	city	8	1	0.858436	0.858436	0	1	0	0	CorrectCommission	2.136736	0.815237	0	0	6.327500e+01
143.779175	1.279406	city	1	1	1.036427	1.036427	0	1	0	0	CorrectCommission	1.255036	0.803908	1	0	6.230000e+01
145.072021	1.306294	city	3	1	1.270336	1.270336	0	1	0	0	CorrectCommission	0.096337	0.793608	1	0	6.132500e+01
146.371674	1.293000	mountain	7	0	0.000000	1.261993	1	0	0	0	CorrectOmission	0.137665	0.785810	1	0	6.035000e+01
147.677948	1.319559	city	9	1	1.179418	1.179418	0	1	0	0	CorrectCommission	0.546709	0.782004	1	0	5.937500e+01
148.977524	1.279587	city	3	1	1.190633	1.190633	0	1	0	0	CorrectCommission	0.491157	0.783444	1	0	5.840000e+01
150.257202	1.279758	city	6	1	1.352279	1.352279	0	1	0	0	CorrectCommission	0.309578	0.790896	1	0	5.742500e+01
151.536774	1.279398	city	9	1	1.402141	1.402141	0	1	0	0	CorrectCommission	0.556576	0.804472	0	0	5.645000e+01
152.816269	1.279583	city	2	1	1.474741	1.474741	0	1	0	0	CorrectCommission	0.916208	0.823583	0	0	5.547500e+01
154.109116	1.306103	city	7	1	1.543596	1.543596	0	1	0	0	CorrectCommission	1.257291	0.847078	0	0	5.450000e+01
155.408691	1.293059	city	6	1	1.201587	1.201587	0	1	0	0	CorrectCommission	0.436895	0.873416	0	0	5.352500e+01
156.721634	1.332834	mountain	10	1	1.135360	1.135360	0	0	1	0	CommissionError	0.764959	0.900998	0	0	5.255000e+01
158.041214	1.306310	city	7	1	1.056782	1.056782	0	1	0	0	CorrectCommission	1.154205	0.928365	0	0	5.157500e+01
159.340805	1.292877	city	8	1	0.981684	0.981684	0	1	0	0	CorrectCommission	1.526211	0.954440	0	0	5.060000e+01
160.640289	1.306101	city	5	1	0.937680	0.937680	0	1	0	0	CorrectCommission	1.744192	0.978604	0	0	4.962500e+01
161.946503	1.306306	city	9	1	0.972354	0.972354	0	1	0	0	CorrectCommission	1.572427	1.000698	0	0	4.865000e+01
163.246109	1.292931	city	3	1	1.250222	1.250222	0	1	0	0	CorrectCommission	0.195976	1.020865	0	0	4.767500e+01
164.532394	1.279625	city	5	1	1.366605	1.366605	0	1	0	0	CorrectCommission	0.380541	1.039353	0	0	4.670000e+01
165.818619	1.292826	city	7	1	1.363623	1.363623	0	1	0	0	CorrectCommission	0.365773	1.056293	0	0	4.572500e+01
167.118134	1.306195	city	1	1	1.217292	1.217292	0	1	0	0	CorrectCommission	0.359097	1.071600	0	0	4.475000e+01
168.417664	1.292859	city	8	1	0.981519	0.981519	0	1	0	0	CorrectCommission	1.527030	1.084936	0	0	4.377500e+01
169.710632	1.293084	city	6	1	0.658501	0.658501	0	1	0	0	CorrectCommission	3.127136	1.095734	0	0	4.280000e+01
170.996902	1.279461	city	10	1	1.071841	1.071841	0	1	0	0	CorrectCommission	1.079608	1.103318	0	0	4.182500e+01
172.283081	1.292906	city	7	1	1.433587	1.433587	0	1	0	0	CorrectCommission	0.712348	1.107131	0	0	4.085000e+01
173.582642	1.306210	city	3	1	1.106208	1.106208	0	1	0	0	CorrectCommission	0.909368	1.106738	0	0	3.987500e+01
174.882202	1.292908	city	2	1	1.061448	1.061448	0	1	0	0	CorrectCommission	1.131092	1.101874	0	0	3.890000e+01
176.188522	1.319731	city	8	1	1.053645	1.053645	0	1	0	0	CorrectCommission	1.169745	1.092465	0	0	3.792500e+01
177.501434	1.306107	city	7	1	1.168752	1.168752	0	1	0	0	CorrectCommission	0.599548	1.078571	0	0	3.695000e+01
178.794250	1.279528	city	10	1	0.928222	0.928222	0	1	0	0	CorrectCommission	1.791043	1.060344	0	0	3.597500e+01
179.434021	10.676521	break	0	0	0.000000	1.088749	0	0	0	0	ThoughtProbe	0.995852	1.037949	0	35	35
190.750397	1.279705	city	2	1	1.405546	1.405546	0	1	0	0	CorrectCommission	0.573441	1.011632	0	0	3.470588e+01
192.029968	1.279439	city	3	1	1.633825	1.633825	0	1	0	0	CorrectCommission	1.704250	0.981685	0	0	3.441176e+01
193.316147	1.292913	mountain	5	0	0.000000	1.502320	1	0	0	0	CorrectOmission	1.052822	0.948466	0	0	3.411765e+01
194.602386	1.279575	city	1	1	1.354786	1.354786	0	1	0	0	CorrectCommission	0.321994	0.912474	0	0	3.382353e+01
195.882034	1.279719	city	7	1	1.534979	1.534979	0	1	0	0	CorrectCommission	1.214606	0.874359	0	0	3.352941e+01
197.181671	1.319558	city	10	1	1.010035	1.010035	0	1	0	0	CorrectCommission	1.385772	0.834862	0	0	3.323529e+01
198.494522	1.306134	city	2	1	1.261040	1.261040	0	1	0	0	CorrectCommission	0.142385	0.794875	1	0	3.294118e+01
199.787445	1.279714	city	4	1	1.086187	1.086187	0	1	0	0	CorrectCommission	1.008544	0.755387	1	0	3.264706e+01
201.067001	1.279392	city	1	1	1.301868	1.301868	0	1	0	0	CorrectCommission	0.059862	0.717381	1	0	3.235294e+01
202.353226	1.293066	city	4	1	1.578258	1.578258	0	1	0	0	CorrectCommission	1.428992	0.681812	1	0	3.205882e+01
203.666214	1.332896	city	7	1	1.441687	1.441687	0	1	0	0	CorrectCommission	0.752469	0.649438	1	0	3.176471e+01
204.992432	1.319562	city	1	1	1.228465	1.228465	0	1	0	0	CorrectCommission	0.303749	0.620862	1	0	3.147059e+01
206.305267	1.306087	city	8	1	1.267366	1.267366	0	1	0	0	CorrectCommission	0.111051	0.596407	1	0	3.117647e+01
207.618149	1.319687	city	3	1	1.264488	1.264488	0	1	0	0	CorrectCommission	0.125308	0.576106	1	0	3.088235e+01
208.924454	1.292919	city	9	1	1.255689	1.255689	0	1	0	0	CorrectCommission	0.168894	0.559820	1	0	3.058824e+01
210.217392	1.292949	city	6	1	1.033172	1.033172	0	1	0	0	CorrectCommission	1.271156	0.547293	1	0	3.029412e+01
211.523560	1.319388	city	3	1	1.068512	1.068512	0	1	0	0	CorrectCommission	1.096098	0.538196	1	0	30
212.829788	1.293089	city	2	1	1.206035	1.206035	0	1	0	0	CorrectCommission	0.414861	0.532305	1	0	2.970588e+01
214.116119	1.279574	mountain	2	0	0.000000	1.334259	1	0	0	0	CorrectOmission	0.220314	0.529554	1	0	2.941176e+01
215.395615	1.279413	city	9	1	1.350283	1.350283	0	1	0	0	CorrectCommission	0.299689	0.530072	1	0	2.911765e+01
216.688431	1.306223	city	7	1	1.151203	1.151203	0	1	0	0	CorrectCommission	0.686477	0.534151	1	0	2.882353e+01
217.981415	1.279740	city	2	1	1.193013	1.193013	0	1	0	0	CorrectCommission	0.479366	0.542187	1	0	2.852941e+01
219.261078	1.279580	city	8	1	1.303708	1.303708	0	1	0	0	CorrectCommission	0.068972	0.554613	1	0	2.823529e+01
220.540649	1.279576	city	7	1	1.467268	1.467268	0	1	0	0	CorrectCommission	0.879188	0.571766	1	0	2.794118e+01
221.820160	1.279443	city	1	1	1.325676	1.325676	0	1	0	0	CorrectCommission	0.177793	0.593748	1	0	2.764706e+01
223.119675	1.319572	city	4	1	1.456715	1.456715	0	1	0	0	CorrectCommission	0.826915	0.620414	1	0	2.735294e+01
224.445892	1.332885	city	6	1	1.128532	1.128532	0	1	0	0	CorrectCommission	0.798780	0.651188	1	0	2.705882e+01
225.758865	1.293054	city	9	1	1.208331	1.208331	0	1	0	0	CorrectCommission	0.403488	0.685083	1	0	2.676471e+01
227.045212	1.279635	city	5	1	1.139062	1.139062	0	1	0	0	CorrectCommission	0.746617	0.720695	1	0	2.647059e+01
228.324707	1.279358	city	8	1	1.352898	1.352898	0	1	0	0	CorrectCommission	0.312644	0.756216	1	0	2.617647e+01
229.604263	1.279742	city	7	1	1.478493	1.478493	0	1	0	0	CorrectCommission	0.934794	0.789646	1	0	2.588235e+01
230.890594	1.292928	city	9	1	1.394412	1.394412	0	1	0	0	CorrectCommission	0.518290	0.818898	0	0	2.558824e+01
232.196747	1.319383	city	7	1	1.387730	1.387730	0	1	0	0	CorrectCommission	0.485187	0.842126	0	0	2.529412e+01
232.856445	9.836791	break	0	0	0.000000	1.646835	0	0	0	0	ThoughtProbe	1.768694	0.857967	0	25	25
243.333099	1.279736	city	9	1	1.805908	1.805908	0	1	0	0	CorrectCommission	2.556685	0.865709	0	0	2.528261e+01
244.632736	1.319548	city	2	1	1.499133	1.499133	0	1	0	0	CorrectCommission	1.037034	0.865466	0	0	2.556522e+01
245.938965	1.292915	city	3	1	1.423803	1.423803	0	1	0	0	CorrectCommission	0.663877	0.858198	0	0	2.584783e+01
247.238495	1.306137	city	4	1	1.323363	1.323363	0	1	0	0	CorrectCommission	0.166336	0.845465	0	0	2.613043e+01
248.538071	1.293002	city	10	1	1.381577	1.381577	0	1	0	0	CorrectCommission	0.454710	0.829238	0	0	2.641304e+01
249.837692	1.306234	city	1	1	1.552919	1.552919	0	1	0	0	CorrectCommission	1.303470	0.811597	0	0	2.669565e+01
251.143845	1.306100	city	5	1	1.424423	1.424423	0	1	0	0	CorrectCommission	0.666952	0.794420	1	0	2.697826e+01
252.456757	1.319725	city	3	1	1.334693	1.334693	0	1	0	0	CorrectCommission	0.222464	0.779188	1	0	2.726087e+01
253.756409	1.279556	city	8	1	1.084122	1.084122	0	1	0	0	CorrectCommission	1.018771	0.766800	1	0	2.754348e+01
255.035980	1.279590	city	1	1	1.245638	1.245638	0	1	0	0	CorrectCommission	0.218681	0.757556	1	0	2.782609e+01
256.322235	1.292918	city	2	1	1.090757	1.090757	0	1	0	0	CorrectCommission	0.985905	0.751264	1	0	2.810870e+01
257.615143	1.292889	city	3	1	1.179506	1.179506	0	1	0	0	CorrectCommission	0.546276	0.747333	1	0	2.839130e+01
258.907959	1.292742	city	5	1	1.038178	1.038178	0	1	0	0	CorrectCommission	1.246363	0.745016	1	0	2.867391e+01
260.194183	1.279737	mountain	2	0	0.000000	1.179884	1	0	0	0	CorrectOmission	0.544401	0.743565	1	0	2.895652e+01
261.473816	1.279514	mountain	1	0	0.000000	1.421093	1	0	0	0	CorrectOmission	0.650457	0.742421	1	0	2.923913e+01
262.759979	1.292814	city	2	1	1.578272	1.578272	0	1	0	0	CorrectCommission	1.429059	0.741309	1	0	2.952174e+01
264.052948	1.293091	city	8	1	1.467887	1.467887	0	1	0	0	CorrectCommission	0.882254	0.740262	1	0	2.980435e+01
265.352478	1.305997	city	4	1	1.268540	1.268540	0	1	0	0	CorrectCommission	0.105232	0.739601	1	0	3.008696e+01
266.651947	1.292970	city	1	1	1.134874	1.134874	0	1	0	0	CorrectCommission	0.767364	0.739847	1	0	3.036957e+01
267.964935	1.332984	city	7	1	1.273956	1.273956	0	1	0	0	CorrectCommission	0.078404	0.741613	1	0	3.065217e+01
269.271271	1.279651	mountain	10	1	1.072127	1.072127	0	0	1	0	CommissionError	1.078189	0.745546	1	0	3.093478e+01
270.557526	1.292904	city	3	1	0.978439	0.978439	0	1	0	0	CorrectCommission	1.542286	0.752166	1	0	3.121739e+01
271.843781	1.279584	city	4	1	1.379435	1.379435	0	1	0	0	CorrectCommission	0.444095	0.761881	1	0	3.150000e+01
273.143280	1.319415	city	10	1	1.293670	1.293670	0	1	0	0	CorrectCommission	0.019252	0.775000	1	0	3.178261e+01
274.442871	1.279753	city	1	1	1.420989	1.420989	0	1	0	0	CorrectCommission	0.649940	0.791668	1	0	3.206522e+01
275.735840	1.306230	city	9	1	1.508566	1.508566	0	1	0	0	CorrectCommission	1.083765	0.811864	0	0	3.234783e+01
277.048645	1.319382	city	8	1	1.501002	1.501002	0	1	0	0	CorrectCommission	1.046293	0.835388	0	0	3.263043e+01
278.374786	1.332850	city	4	1	1.175875	1.175875	0	1	0	0	CorrectCommission	0.564263	0.861869	0	0	3.291304e+01
279.681000	1.279626	city	3	1	1.033421	1.033421	0	1	0	0	CorrectCommission	1.269927	0.890704	0	0	3.319565e+01
280.974030	1.306398	city	10	1	1.152662	1.152662	0	1	0	0	CorrectCommission	0.679250	0.921005	0	0	3.347826e+01
282.273682	1.292907	city	7	1	1.536206	1.536206	0	1	0	0	CorrectCommission	1.220682	0.951605	0	0	3.376087e+01
283.573212	1.306147	city	4	1	1.205223	1.205223	0	1	0	0	CorrectCommission	0.418884	0.981047	0	0	3.404348e+01
284.872711	1.292862	city	10	1	1.090249	1.090249	0	1	0	0	CorrectCommission	0.988423	1.007693	0	0	3.432609e+01
286.158936	1.279574	city	6	1	1.372965	1.372965	0	1	0	0	CorrectCommission	0.412048	1.029800	0	0	3.460870e+01
287.458588	1.319737	city	4	1	1.512729	1.512729	0	1	0	0	CorrectCommission	1.104386	1.045756	0	0	3.489130e+01
288.784729	1.332576	city	5	1	1.801633	1.801633	0	1	0	0	CorrectCommission	2.535505	1.054290	0	0	3.517391e+01
290.104248	1.306465	mountain	1	0	0.000000	1.491852	1	0	0	0	CorrectOmission	1.000967	1.054648	0	0	3.545652e+01
291.397217	1.279480	city	1	1	1.032254	1.032254	0	1	0	0	CorrectCommission	1.275705	1.046796	0	0	3.573913e+01
292.676849	1.279744	city	10	1	0.871708	0.871708	0	1	0	0	CorrectCommission	2.070992	1.031350	0	0	3.602174e+01
293.956512	1.279598	city	5	1	0.980069	0.980069	0	1	0	0	CorrectCommission	1.534210	1.009486	0	0	3.630435e+01
295.249420	1.306238	city	10	1	1.332273	1.332273	0	1	0	0	CorrectCommission	0.210473	0.982695	0	0	3.658696e+01
296.582245	1.359372	city	8	1	1.247286	1.247286	0	1	0	0	CorrectCommission	0.210517	0.952510	0	0	3.686957e+01
297.901672	1.279514	city	4	1	1.251381	1.251381	0	1	0	0	CorrectCommission	0.190236	0.920184	0	0	3.715217e+01
299.194611	1.306364	city	6	1	1.196499	1.196499	0	1	0	0	CorrectCommission	0.462099	0.886575	0	0	3.743478e+01
300.507629	1.319683	city	1	1	1.069851	1.069851	0	1	0	0	CorrectCommission	1.089464	0.852110	0	0	3.771739e+01
304.886200	7.437406	break	0	1	1.136816	1.136816	0	0	0	0	ThoughtProbe	0.757748	0.816887	0	38	38
309.244659	1.279546	city	4	1	1.795028	1.795028	0	1	0	0	CorrectCommission	2.502788	0.780895	1	0	3.755882e+01
310.544312	1.319728	city	1	1	1.543264	1.543264	0	1	0	0	CorrectCommission	1.255644	0.744162	1	0	3.711765e+01
311.857208	1.306088	city	10	1	1.372830	1.372830	0	1	0	0	CorrectCommission	0.411377	0.707032	1	0	3.667647e+01
313.150116	1.279726	city	8	1	1.298841	1.298841	0	1	0	0	CorrectCommission	0.044865	0.670156	1	0	3.623529e+01
314.429688	1.279418	city	7	1	1.299420	1.299420	0	1	0	0	CorrectCommission	0.047733	0.634424	1	0	3.579412e+01
315.709259	1.279738	city	4	1	1.476924	1.476924	0	1	0	0	CorrectCommission	0.927019	0.600870	1	0	3.535294e+01
317.015533	1.332784	city	8	1	1.231186	1.231186	0	1	0	0	CorrectCommission	0.290270	0.570477	1	0	3.491176e+01
318.321716	1.279578	mountain	9	0	0.000000	1.352321	1	0	0	0	CorrectOmission	0.309784	0.544086	1	0	3.447059e+01
319.607941	1.292876	city	6	1	1.487796	1.487796	0	1	0	0	CorrectCommission	0.980879	0.522238	1	0	3.402941e+01
320.920898	1.333050	city	7	1	1.285083	1.285083	0	1	0	0	CorrectCommission	0.023286	0.505170	1	0	3.358824e+01
322.233795	1.292732	city	9	1	1.253495	1.253495	0	1	0	0	CorrectCommission	0.179763	0.492848	1	0	3.314706e+01
323.540039	1.319758	city	5	1	1.179239	1.179239	0	1	0	0	CorrectCommission	0.547597	0.484994	1	0	3.270588e+01
324.846283	1.292720	city	1	1	1.476421	1.476421	0	1	0	0	CorrectCommission	0.924531	0.481246	1	0	3.226471e+01
326.139099	1.292919	city	6	1	1.417918	1.417918	0	1	0	0	CorrectCommission	0.634728	0.481236	1	0	3.182353e+01
327.451996	1.332885	city	8	1	1.299070	1.299070	0	1	0	0	CorrectCommission	0.045998	0.484688	1	0	3.138235e+01
328.791565	1.346263	city	10	1	1.302800	1.302800	0	1	0	0	CorrectCommission	0.064476	0.491482	1	0	3.094118e+01
330.104553	1.279703	city	5	1	1.521814	1.521814	0	1	0	0	CorrectCommission	1.149392	0.501619	1	0	3.050000e+01
331.390869	1.292924	city	1	1	1.430134	1.430134	0	1	0	0	CorrectCommission	0.695241	0.515167	1	0	3.005882e+01
332.697052	1.319465	city	10	1	1.276697	1.276697	0	1	0	0	CorrectCommission	0.064826	0.532247	1	0	2.961765e+01
334.003235	1.292920	city	9	1	1.315359	1.315359	0	1	0	0	CorrectCommission	0.126691	0.552916	1	0	2.917647e+01
335.296112	1.292837	city	10	1	1.302395	1.302395	0	1	0	0	CorrectCommission	0.062473	0.577075	1	0	2.873529e+01
336.602417	1.319713	city	1	1	1.519824	1.519824	0	1	0	0	CorrectCommission	1.139529	0.604494	1	0	2.829412e+01
337.908722	1.292904	mountain	5	0	0.000000	1.515613	1	0	0	0	CorrectOmission	1.118670	0.634642	1	0	2.785294e+01
339.201538	1.292765	city	3	1	1.419491	1.419491	0	1	0	0	CorrectCommission	0.642521	0.666859	1	0	2.741176e+01
340.521118	1.346386	city	9	1	1.361188	1.361188	0	1	0	0	CorrectCommission	0.353708	0.700279	1	0	2.697059e+01
341.880676	1.372740	city	4	1	1.190004	1.190004	0	1	0	0	CorrectCommission	0.494272	0.733933	1	0	2.652941e+01
343.220154	1.306196	city	2	1	1.226497	1.226497	0	1	0	0	CorrectCommission	0.313498	0.766764	1	0	2.608824e+01
344.513062	1.279605	city	9	1	1.468376	1.468376	0	1	0	0	CorrectCommission	0.884679	0.797754	1	0	2.564706e+01
345.792725	1.279712	city	8	1	1.671873	1.671873	0	1	0	0	CorrectCommission	1.892725	0.826009	0	0	2.520588e+01
347.085602	1.306079	city	4	1	1.474318	1.474318	0	1	0	0	CorrectCommission	0.914113	0.850870	0	0	2.476471e+01
348.385101	1.292921	city	1	1	1.478595	1.478595	0	1	0	0	CorrectCommission	0.935300	0.872000	0	0	2.432353e+01
349.678009	1.292895	city	7	1	1.433284	1.433284	0	1	0	0	CorrectCommission	0.710846	0.889374	0	0	2.388235e+01
350.990997	1.333062	city	1	1	1.222869	1.222869	0	1	0	0	CorrectCommission	0.331471	0.903288	0	0	2.344118e+01
355.042999	6.770956	break	0	1	1.090224	1.090224	0	0	0	0	ThoughtProbe	0.988543	0.914271	0	23	23
359.075012	1.293083	city	9	1	1.743927	1.743927	0	1	0	0	CorrectCommission	2.249652	0.922957	0	0	2.315217e+01
360.401184	1.359271	city	10	1	1.131942	1.131942	0	1	0	0	CorrectCommission	0.781889	0.929967	0	0	2.330435e+01
361.740662	1.319653	city	5	1	1.182219	1.182219	0	1	0	0	CorrectCommission	0.532834	0.935821	0	0	2.345652e+01
363.040283	1.279615	city	4	1	1.430030	1.430030	0	1	0	0	CorrectCommission	0.694724	0.940736	0	0	2.360870e+01
364.326630	1.293034	mountain	7	0	0.000000	1.365429	1	0	0	0	CorrectOmission	0.374718	0.944589	0	0	2.376087e+01
365.619598	1.292905	city	1	1	1.350983	1.350983	0	1	0	0	CorrectCommission	0.303156	0.946927	0	0	2.391304e+01
366.912506	1.292911	city	4	1	1.749255	1.749255	0	1	0	0	CorrectCommission	2.276048	0.947084	0	0	2.406522e+01
368.218750	1.319585	city	10	0	0.000000	1.304707	0	0	0	1	OmissionError	0.073922	0.944268	0	0	2.421739e+01
369.524902	1.292727	city	2	1	0.836912	0.836912	0	1	0	0	CorrectCommission	2.243359	0.937907	0	0	2.436957e+01
370.837708	1.332918	city	7	1	1.165444	1.165444	0	1	0	0	CorrectCommission	0.615932	0.927634	0	0	2.452174e+01
372.157379	1.306379	city	10	1	0.887469	0.887469	0	1	0	0	CorrectCommission	1.992915	0.913606	0	0	2.467391e+01
373.456940	1.292749	city	6	1	1.178318	1.178318	0	1	0	0	CorrectCommission	0.552161	0.896427	0	0	2.482609e+01
374.749786	1.292965	city	10	1	1.184265	1.184265	0	1	0	0	CorrectCommission	0.522700	0.877236	0	0	2.497826e+01
376.036133	1.279703	mountain	7	0	0.000000	1.319183	1	0	0	0	CorrectOmission	0.145631	0.857521	0	0	2.513043e+01
377.315735	1.279494	city	5	1	1.471061	1.471061	0	1	0	0	CorrectCommission	0.897976	0.838983	0	0	2.528261e+01
378.608612	1.306299	city	1	1	1.527888	1.527888	0	1	0	0	CorrectCommission	1.179476	0.823403	0	0	2.543478e+01
379.914825	1.306122	city	6	1	1.445762	1.445762	0	1	0	0	CorrectCommission	0.772655	0.812490	0	0	2.558696e+01
381.214325	1.292886	city	7	1	1.484485	1.484485	0	1	0	0	CorrectCommission	0.964476	0.807805	0	0	2.573913e+01
382.507324	1.293067	mountain	4	0	0.000000	1.383052	1	0	0	0	CorrectOmission	0.462013	0.810619	0	0	2.589130e+01
383.820221	1.332730	city	9	1	1.225617	1.225617	0	1	0	0	CorrectCommission	0.317858	0.821819	0	0	2.604348e+01
385.173096	1.373024	city	10	1	1.096338	1.096338	0	1	0	0	CorrectCommission	0.958257	0.841762	0	0	2.619565e+01
386.506012	1.292839	city	6	1	1.457253	1.457253	0	1	0	0	CorrectCommission	0.829579	0.870200	0	0	2.634783e+01
387.798920	1.292975	city	8	1	1.324723	1.324723	0	1	0	0	CorrectCommission	0.173073	0.906194	0	0	2.650000e+01
389.091858	1.292914	city	9	1	1.544427	1.544427	0	1	0	0	CorrectCommission	1.261406	0.948147	0	0	2.665217e+01
390.418060	1.359481	city	4	1	1.196663	1.196663	0	1	0	0	CorrectCommission	0.461287	0.993771	0	0	2.680435e+01
391.750946	1.306304	city	10	1	1.031537	1.031537	0	1	0	0	CorrectCommission	1.279259	1.040271	0	0	2.695652e+01
393.070496	1.332756	city	9	1	1.063517	1.063517	0	1	0	0	CorrectCommission	1.120842	1.084516	0	0	2.710870e+01
394.383392	1.293064	city	3	1	0.966091	0.966091	0	1	0	0	CorrectCommission	1.603452	1.123380	0	0	2.726087e+01
395.689636	1.319399	city	8	1	1.105945	1.105945	0	1	0	0	CorrectCommission	0.910671	1.153960	0	0	2.741304e+01
397.002441	1.306223	city	6	1	1.071947	1.071947	0	1	0	0	CorrectCommission	1.079083	1.174098	0	0	2.756522e+01
398.295441	1.279767	city	7	1	1.018116	1.018116	0	1	0	0	CorrectCommission	1.345741	1.182563	0	0	2.771739e+01
399.581757	1.292902	city	6	1	0.807554	0.807554	0	1	0	0	CorrectCommission	2.388786	1.179380	0	0	2.786957e+01
400.874664	1.292891	city	3	1	0.682967	0.682967	0	1	0	0	CorrectCommission	3.005940	1.165854	0	0	2.802174e+01
402.160828	1.279421	city	7	1	1.424163	1.424163	0	1	0	0	CorrectCommission	0.665665	1.144527	0	0	2.817391e+01
403.453735	1.306395	mountain	2	0	0.000000	1.481888	1	0	0	0	CorrectOmission	0.951609	1.118937	0	0	2.832609e+01
404.746735	1.279590	city	9	1	1.297065	1.297065	0	1	0	0	CorrectCommission	0.036070	1.093085	0	0	2.847826e+01
406.039551	1.306065	city	2	1	1.310622	1.310622	0	1	0	0	CorrectCommission	0.103225	1.070940	0	0	2.863043e+01
407.352386	1.319621	city	10	1	1.568480	1.568480	0	1	0	0	CorrectCommission	1.380553	1.055887	0	0	2.878261e+01
408.665344	1.306268	city	2	1	1.608776	1.608776	0	1	0	0	CorrectCommission	1.580167	1.050243	0	0	2.893478e+01
409.984894	1.332821	city	8	1	1.285194	1.285194	0	1	0	0	CorrectCommission	0.022736	1.054925	0	0	2.908696e+01
411.291077	1.279580	city	2	1	1.475531	1.475531	0	1	0	0	CorrectCommission	0.920122	1.069354	0	0	2.923913e+01
412.570648	1.279569	city	9	1	1.417956	1.417956	0	1	0	0	CorrectCommission	0.634916	1.091409	0	0	2.939130e+01
413.870209	1.319562	city	5	1	1.534195	1.534195	0	1	0	0	CorrectCommission	1.210719	1.117741	0	0	2.954348e+01
415.189819	1.319629	city	4	1	1.503066	1.503066	0	1	0	0	CorrectCommission	1.056520	1.144148	0	0	2.969565e+01
416.498077	1.296887	city	5	1	1.370637	1.370637	0	1	0	0	CorrectCommission	0.400514	1.166199	0	0	2.984783e+01
420.856689	7.420333	break	0	0	0.000000	1.650394	0	0	0	0	ThoughtProbe	1.786327	1.179770	0	30	30
425.206635	1.279588	city	8	1	1.877224	1.877224	0	1	0	0	CorrectCommission	2.909955	1.181654	0	0	2.955882e+01
426.519562	1.346227	city	3	1	1.586010	1.586010	0	1	0	0	CorrectCommission	1.467394	1.169989	0	0	2.911765e+01
427.839111	1.292903	city	5	1	1.695176	1.695176	0	1	0	0	CorrectCommission	2.008159	1.144609	0	0	2.867647e+01
429.132019	1.292914	mountain	5	0	0.000000	1.620649	1	0	0	0	CorrectOmission	1.638980	1.106929	0	0	2.823529e+01
430.424957	1.292931	city	5	1	1.499790	1.499790	0	1	0	0	CorrectCommission	1.040291	1.059749	0	0	2.779412e+01
431.737793	1.332747	city	7	1	1.469961	1.469961	0	1	0	0	CorrectCommission	0.892528	1.006765	0	0	2.735294e+01
433.050598	1.292894	city	9	1	1.298299	1.298299	0	1	0	0	CorrectCommission	0.042179	0.951981	0	0	2.691176e+01
434.370270	1.346397	city	4	1	1.285371	1.285371	0	1	0	0	CorrectCommission	0.021862	0.899180	0	0	2.647059e+01
435.696472	1.306058	city	3	1	1.443565	1.443565	0	1	0	0	CorrectCommission	0.761774	0.851371	0	0	2.602941e+01
437.002625	1.306244	city	2	1	1.341678	1.341678	0	1	0	0	CorrectCommission	0.257065	0.810556	0	0	2.558824e+01
438.335541	1.359549	mountain	2	0	0.000000	1.098670	1	0	0	0	CorrectOmission	0.946708	0.777706	1	0	2.514706e+01
439.675171	1.319737	city	1	1	0.991650	0.991650	0	1	0	0	CorrectCommission	1.476845	0.752821	1	0	2.470588e+01
440.981476	1.292872	city	5	1	1.297729	1.297729	0	1	0	0	CorrectCommission	0.039355	0.735253	1	0	2.426471e+01
442.294373	1.332928	city	9	1	1.450086	1.450086	0	1	0	0	CorrectCommission	0.794078	0.724064	1	0	2.382353e+01
443.613953	1.306208	city	4	1	1.093661	1.093661	0	1	0	0	CorrectCommission	0.971519	0.718291	1	0	2.338235e+01
444.913605	1.293128	city	2	1	1.076854	1.076854	0	1	0	0	CorrectCommission	1.054773	0.717281	1	0	2.294118e+01
446.219757	1.319185	city	3	1	1.272832	1.272832	0	1	0	0	CorrectCommission	0.083974	0.720772	1	0	2.250000e+01
447.532471	1.306243	city	2	1	1.033877	1.033877	0	1	0	0	CorrectCommission	1.267668	0.728937	1	0	2.205882e+01
448.838806	1.306420	city	8	1	1.329021	1.329021	0	1	0	0	CorrectCommission	0.194367	0.742178	1	0	2.161765e+01
450.145142	1.306227	city	4	1	1.527539	1.527539	0	1	0	0	CorrectCommission	1.177747	0.761001	1	0	2.117647e+01
451.444611	1.292735	city	5	1	1.329002	1.329002	0	1	0	0	CorrectCommission	0.194272	0.785704	1	0	2.073529e+01
452.757446	1.332899	city	6	1	1.420985	1.420985	0	1	0	0	CorrectCommission	0.649922	0.816181	0	0	2.029412e+01
454.096985	1.346211	city	8	1	1.491903	1.491903	0	1	0	0	CorrectCommission	1.001222	0.851662	0	0	1.985294e+01
455.436646	1.333075	city	6	1	1.230111	1.230111	0	1	0	0	CorrectCommission	0.295596	0.890741	0	0	1.941176e+01
456.769623	1.332898	city	1	1	1.313794	1.313794	0	1	0	0	CorrectCommission	0.118936	0.931384	0	0	1.897059e+01
458.082520	1.292886	city	9	1	1.182787	1.182787	0	1	0	0	CorrectCommission	0.530023	0.971111	0	0	1.852941e+01
459.368713	1.279520	city	8	1	1.831878	1.831878	0	1	0	0	CorrectCommission	2.685331	1.007265	0	0	1.808824e+01
460.668274	1.319623	city	4	1	0.897180	0.897180	0	1	0	0	CorrectCommission	1.944812	1.037306	0	0	1.764706e+01
461.981140	1.306104	city	2	1	1.203434	1.203434	0	1	0	0	CorrectCommission	0.427745	1.059187	0	0	1.720588e+01
463.280640	1.292888	city	1	1	1.710207	1.710207	0	1	0	0	CorrectCommission	2.082617	1.071489	0	0	1.676471e+01
464.586945	1.319727	city	6	1	1.503357	1.503357	0	1	0	0	CorrectCommission	1.057960	1.073469	0	0	1.632353e+01
465.899963	1.306270	city	9	1	1.500257	1.500257	0	1	0	0	CorrectCommission	1.042602	1.065145	0	0	1.588235e+01
467.206116	1.306072	city	4	1	1.427889	1.427889	0	1	0	0	CorrectCommission	0.684120	1.047139	0	0	1.544118e+01
467.859161	8.077313	break	0	0	0.000000	1.447166	0	0	0	0	ThoughtProbe	0.779610	1.020552	0	15	15
476.576355	1.279737	city	9	1	1.509705	1.509705	0	1	0	0	CorrectCommission	1.089404	0.986860	0	0	1.550000e+01
477.875916	1.319410	mountain	3	0	0.000000	1.567123	1	0	0	0	CorrectOmission	1.373833	0.947745	0	0	16
479.175446	1.279620	mountain	8	0	0.000000	1.584147	1	0	0	0	CorrectOmission	1.458161	0.905055	0	0	1.650000e+01
480.461761	1.293021	city	5	1	1.525500	1.525500	0	1	0	0	CorrectCommission	1.167649	0.860709	0	0	17
481.774628	1.332734	city	9	1	1.355909	1.355909	0	1	0	0	CorrectCommission	0.327560	0.816641	0	0	1.750000e+01
483.100861	1.319729	city	6	1	1.191613	1.191613	0	1	0	0	CorrectCommission	0.486301	0.774677	1	0	18
484.433746	1.346038	city	4	1	1.186541	1.186541	0	1	0	0	CorrectCommission	0.511428	0.736452	1	0	1.850000e+01
485.759979	1.306438	city	6	1	1.236698	1.236698	0	1	0	0	CorrectCommission	0.262965	0.703288	1	0	19
487.079651	1.332876	city	9	1	1.064729	1.064729	0	1	0	0	CorrectCommission	1.114837	0.676143	1	0	1.950000e+01
488.412445	1.332741	city	7	1	1.171628	1.171628	0	1	0	0	CorrectCommission	0.585302	0.655499	1	0	20
489.771912	1.386206	city	4	1	1.230151	1.230151	0	1	0	0	CorrectCommission	0.295400	0.641372	1	0	2.050000e+01
491.124817	1.319562	city	3	1	1.283371	1.283371	0	1	0	0	CorrectCommission	0.031766	0.633340	1	0	21
492.424408	1.279651	city	5	1	1.449743	1.449743	0	1	0	0	CorrectCommission	0.792375	0.630606	1	0	2.150000e+01
493.710724	1.293003	city	6	1	1.529973	1.529973	0	1	0	0	CorrectCommission	1.189808	0.632081	1	0	22
495.017029	1.319566	city	10	0	0.000000	1.291203	0	0	0	1	OmissionError	0.007027	0.636494	1	0	2.250000e+01
496.329926	1.306257	city	1	1	1.071794	1.071794	0	1	0	0	CorrectCommission	1.079841	0.642583	1	0	23
497.629425	1.292719	city	2	1	1.210111	1.210111	0	1	0	0	CorrectCommission	0.394670	0.649158	1	0	2.350000e+01
498.922333	1.293077	city	10	1	1.435229	1.435229	0	1	0	0	CorrectCommission	0.720477	0.655169	1	0	24
500.208618	1.279502	city	2	1	1.458898	1.458898	0	1	0	0	CorrectCommission	0.837725	0.659782	1	0	2.450000e+01
501.521423	1.346141	city	3	1	1.517262	1.517262	0	1	0	0	CorrectCommission	1.126839	0.662389	1	0	25
502.860931	1.332882	city	8	1	1.301153	1.301153	0	1	0	0	CorrectCommission	0.056317	0.662591	1	0	2.550000e+01
504.167236	1.279709	city	6	1	1.071488	1.071488	0	1	0	0	CorrectCommission	1.081357	0.660183	1	0	26
505.460175	1.306140	city	2	1	1.092507	1.092507	0	1	0	0	CorrectCommission	0.977235	0.655035	1	0	2.650000e+01
506.773102	1.319707	city	10	1	1.205970	1.205970	0	1	0	0	CorrectCommission	0.415181	0.647114	1	0	27
508.112640	1.359402	city	5	1	1.281380	1.281380	0	1	0	0	CorrectCommission	0.041630	0.636430	1	0	2.750000e+01
509.445465	1.306222	city	1	1	1.352892	1.352892	0	1	0	0	CorrectCommission	0.312614	0.623075	1	0	28
510.758392	1.319635	mountain	6	0	0.000000	1.473481	1	0	0	0	CorrectOmission	0.909964	0.607246	1	0	2.850000e+01
512.064697	1.293041	city	3	1	1.569320	1.569320	0	1	0	0	CorrectCommission	1.384716	0.589272	1	0	29
513.397644	1.372750	city	4	1	1.566585	1.566585	0	1	0	0	CorrectCommission	1.371166	0.569641	1	0	2.950000e+01
514.757080	1.346155	city	2	1	1.212843	1.212843	0	1	0	0	CorrectCommission	0.381135	0.548995	1	0	30
516.096680	1.333112	city	1	1	1.301832	1.301832	0	1	0	0	CorrectCommission	0.059682	0.528053	1	0	3.050000e+01
517.429688	1.332859	city	5	1	1.278228	1.278228	0	1	0	0	CorrectCommission	0.057246	0.507489	1	0	31
518.735840	1.279396	city	1	1	1.294606	1.294606	0	1	0	0	CorrectCommission	0.023887	0.487849	1	0	3.150000e+01
520.022034	1.293094	city	5	1	1.306682	1.306682	0	1	0	0	CorrectCommission	0.083705	0.469494	1	0	32
521.335022	1.332865	city	2	1	1.169358	1.169358	0	1	0	0	CorrectCommission	0.596547	0.452554	1	0	3.250000e+01
522.647888	1.292775	city	10	1	0.932660	0.932660	0	1	0	0	CorrectCommission	1.769057	0.436948	1	0	33
523.947449	1.306404	city	9	1	1.311342	1.311342	0	1	0	0	CorrectCommission	0.106791	0.422455	1	0	3.350000e+01
525.260437	1.319557	city	8	1	1.263309	1.263309	0	1	0	0	CorrectCommission	0.131147	0.408812	1	0	34
526.559998	1.279568	city	6	1	1.315195	1.315195	0	1	0	0	CorrectCommission	0.125875	0.395716	1	0	3.450000e+01
530.751892	7.104250	break	0	0	0.000000	1.367080	0	0	0	0	ThoughtProbe	0.382897	0.382897	1	35	35
