onset	duration	trial_type	image_type	Press	ReactionTime	ReactionTime_Interpolated	CorrectOmission	CorrectCommission	CommissionError	OmissionError	response_type	nonsmoothVarianceTimeCourse	VarianceTimeCourse	In_the_Zone	ThoughtProbe	ThoughtProbe_Interpolated
0.652660	1.279568	city	10	1	1.176958	1.176958	0	1	0	0	CorrectCommission	0.239418	0.239418	1	0	10
1.932326	1.279765	city	8	1	0.861264	0.861264	0	1	0	0	CorrectCommission	1.329762	0.296287	1	0	10
3.211980	1.279544	mountain	10	0	0.000000	0.886557	1	0	0	0	CorrectOmission	1.204041	0.350151	1	0	10
4.491540	1.279577	city	2	1	1.070528	1.070528	0	1	0	0	CorrectCommission	0.289599	0.398443	1	0	10
5.771114	1.279570	city	3	1	1.230868	1.230868	0	1	0	0	CorrectCommission	0.507383	0.439339	1	0	10
7.050615	1.279432	city	7	1	1.391993	1.391993	0	1	0	0	CorrectCommission	1.308267	0.471926	1	0	10
8.330213	1.279765	city	9	1	1.019172	1.019172	0	1	0	0	CorrectCommission	0.544870	0.496240	1	0	10
9.609872	1.279554	city	8	1	1.088612	1.088612	0	1	0	0	CorrectCommission	0.199709	0.513184	1	0	10
10.889438	1.279578	city	2	1	0.964766	0.964766	0	1	0	0	CorrectCommission	0.815295	0.524229	1	0	10
12.169006	1.279559	city	7	1	1.129254	1.129254	0	1	0	0	CorrectCommission	0.002303	0.531121	1	0	10
13.448462	1.279354	city	8	1	0.914764	0.914764	0	1	0	0	CorrectCommission	1.063838	0.535570	1	0	10
14.727886	1.279493	city	6	1	1.139005	1.139005	0	1	0	0	CorrectCommission	0.050772	0.538937	1	0	10
16.007553	1.279843	city	4	1	1.123842	1.123842	0	1	0	0	CorrectCommission	0.024598	0.542145	1	0	10
17.287298	1.279647	city	5	1	0.941443	0.941443	0	1	0	0	CorrectCommission	0.931226	0.545524	1	0	10
18.566906	1.279566	mountain	8	0	0.000000	1.082666	1	0	0	0	CorrectOmission	0.229265	0.548874	1	0	10
19.846479	1.279584	city	2	1	1.287422	1.287422	0	1	0	0	CorrectCommission	0.788491	0.551640	1	0	10
21.126064	1.279586	city	4	1	1.295622	1.295622	0	1	0	0	CorrectCommission	0.829247	0.553078	1	0	10
22.405573	1.279429	mountain	6	1	1.179702	1.179702	0	0	1	0	CommissionError	0.253060	0.552511	1	0	10
23.685152	1.279729	city	6	1	1.389556	1.389556	0	1	0	0	CorrectCommission	1.296156	0.549502	1	0	10
24.964802	1.279573	city	4	1	1.287967	1.287967	0	1	0	0	CorrectCommission	0.791200	0.543940	1	0	10
26.244371	1.279564	city	3	1	1.177396	1.177396	0	1	0	0	CorrectCommission	0.241597	0.536174	1	0	10
27.523897	1.279489	city	10	1	1.089408	1.089408	0	1	0	0	CorrectCommission	0.195754	0.526939	1	0	10
28.803484	1.279682	city	3	1	1.287537	1.287537	0	1	0	0	CorrectCommission	0.789061	0.517230	1	0	10
30.083109	1.279569	city	5	1	1.142114	1.142114	0	1	0	0	CorrectCommission	0.066227	0.508164	1	0	10
31.362690	1.279592	city	3	1	1.340577	1.340577	0	1	0	0	CorrectCommission	1.052703	0.500835	1	0	10
32.642231	1.279493	city	5	1	1.234368	1.234368	0	1	0	0	CorrectCommission	0.524779	0.496116	1	0	10
33.921818	1.279676	mountain	9	0	0.000000	1.171901	1	0	0	0	CorrectOmission	0.214285	0.494556	1	0	10
35.201351	1.279391	city	2	1	1.127256	1.127256	0	1	0	0	CorrectCommission	0.007628	0.496256	1	0	10
36.480911	1.279735	city	8	1	1.074510	1.074510	0	1	0	0	CorrectCommission	0.269807	0.500883	1	0	10
37.760544	1.279531	city	7	1	1.079597	1.079597	0	1	0	0	CorrectCommission	0.244523	0.507681	1	0	10
39.040081	1.279540	city	9	1	1.022981	1.022981	0	1	0	0	CorrectCommission	0.525937	0.515614	1	0	10
40.339680	1.319662	city	5	1	0.936789	0.936789	0	1	0	0	CorrectCommission	0.954360	0.523557	1	0	10
41.639313	1.279599	city	1	1	0.872925	0.872925	0	1	0	0	CorrectCommission	1.271801	0.530475	1	0	10
42.918873	1.279521	city	2	1	1.018074	1.018074	0	1	0	0	CorrectCommission	0.550323	0.535583	1	0	10
44.198448	1.279632	city	7	1	1.085602	1.085602	0	1	0	0	CorrectCommission	0.214674	0.538547	1	0	10
45.478046	1.279567	city	2	1	1.023169	1.023169	0	1	0	0	CorrectCommission	0.525000	0.539528	1	0	10
46.777622	1.319583	city	5	1	1.013268	1.013268	0	1	0	0	CorrectCommission	0.574215	0.539180	1	0	10
48.077190	1.279552	city	2	1	0.982502	0.982502	0	1	0	0	CorrectCommission	0.727139	0.538637	1	0	10
49.356697	1.279462	city	4	1	1.192164	1.192164	0	1	0	0	CorrectCommission	0.315002	0.539437	1	0	10
50.636288	1.279722	city	3	1	1.017899	1.017899	0	1	0	0	CorrectCommission	0.551196	0.543421	1	0	10
51.915859	1.279422	city	1	1	1.020750	1.020750	0	1	0	0	CorrectCommission	0.537022	0.552578	1	0	10
53.195438	1.279731	city	4	1	1.081292	1.081292	0	1	0	0	CorrectCommission	0.236093	0.568834	1	0	10
54.475098	1.279587	city	3	1	0.928904	0.928904	0	1	0	0	CorrectCommission	0.993550	0.593910	1	0	10
55.754597	1.279418	city	6	1	1.085534	1.085534	0	1	0	0	CorrectCommission	0.215012	0.629061	1	0	10
57.034176	1.279739	city	10	1	1.082884	1.082884	0	1	0	0	CorrectCommission	0.228183	0.674934	1	0	10
60.633072	5.918052	break	0	1	1.092723	1.092723	0	0	0	0	ThoughtProbe	0.179274	0.731348	0	10	10
64.231842	1.279491	city	5	1	1.254281	1.254281	0	1	0	0	CorrectCommission	0.623758	0.797200	0	0	9.911765e+00
65.511421	1.279668	city	10	1	0.867366	0.867366	0	1	0	0	CorrectCommission	1.299433	0.870475	0	0	9.823529e+00
66.790993	1.279477	mountain	5	1	1.174966	1.174966	0	0	1	0	CommissionError	0.229517	0.948330	0	0	9.735294e+00
68.077225	1.292988	city	2	1	1.051890	1.051890	0	1	0	0	CorrectCommission	0.382242	1.027352	0	0	9.647059e+00
69.363472	1.279501	city	9	1	0.911426	0.911426	0	1	0	0	CorrectCommission	1.080429	1.103788	0	0	9.558824e+00
70.649719	1.292995	city	5	1	1.733962	1.733962	0	1	0	0	CorrectCommission	3.008052	1.173948	0	0	9.470588e+00
71.936005	1.279573	city	7	1	1.294490	1.294490	0	1	0	0	CorrectCommission	0.823623	1.234528	0	0	9.382353e+00
73.215591	1.279598	city	9	1	0.818939	0.818939	0	1	0	0	CorrectCommission	1.540142	1.283014	0	0	9.294118e+00
74.508476	1.306166	city	1	1	1.747626	1.747626	0	1	0	0	CorrectCommission	3.075973	1.317737	0	0	9.205882e+00
75.801384	1.279652	city	6	1	1.401493	1.401493	0	1	0	0	CorrectCommission	1.355487	1.337982	0	0	9.117647e+00
77.080917	1.279417	city	2	1	1.018434	1.018434	0	1	0	0	CorrectCommission	0.548537	1.343998	0	0	9.029412e+00
78.367111	1.292966	city	6	1	0.934680	0.934680	0	1	0	0	CorrectCommission	0.964844	1.336755	0	0	8.941176e+00
79.666748	1.306308	city	7	1	0.916721	0.916721	0	1	0	0	CorrectCommission	1.054107	1.317750	0	0	8.852941e+00
80.966354	1.292916	city	1	1	1.760839	1.760839	0	1	0	0	CorrectCommission	3.141648	1.288816	0	0	8.764706e+00
82.279221	1.332811	city	7	1	1.292202	1.292202	0	1	0	0	CorrectCommission	0.812249	1.251911	0	0	8.676471e+00
83.585464	1.279683	city	6	1	0.967203	0.967203	0	1	0	0	CorrectCommission	0.803185	1.209069	0	0	8.588235e+00
84.878349	1.306079	city	2	1	0.917976	0.917976	0	1	0	0	CorrectCommission	1.047871	1.162196	0	0	8.500000e+00
86.171249	1.279721	city	1	1	0.765638	0.765638	0	1	0	0	CorrectCommission	1.805078	1.113023	0	0	8.411765e+00
87.450897	1.279574	mountain	10	1	0.976931	0.976931	0	0	1	0	CommissionError	0.754832	1.063038	0	0	8.323529e+00
88.737144	1.292924	city	8	1	0.987749	0.987749	0	1	0	0	CorrectCommission	0.701060	1.013537	0	0	8.235294e+00
90.023415	1.279619	city	6	1	0.913451	0.913451	0	1	0	0	CorrectCommission	1.070363	0.965523	0	0	8.147059e+00
91.316330	1.306203	city	10	1	0.904567	0.904567	0	1	0	0	CorrectCommission	1.114523	0.919724	0	0	8.058824e+00
92.609222	1.279583	city	6	1	1.288987	1.288987	0	1	0	0	CorrectCommission	0.796270	0.876615	0	0	7.970588e+00
93.895454	1.292887	city	9	1	1.143862	1.143862	0	1	0	0	CorrectCommission	0.074915	0.836484	0	0	7.882353e+00
95.181610	1.279423	city	8	1	0.972424	0.972424	0	1	0	0	CorrectCommission	0.777231	0.799475	0	0	7.794118e+00
96.467850	1.293057	city	7	1	0.979669	0.979669	0	1	0	0	CorrectCommission	0.741223	0.765668	0	0	7.705882e+00
97.767509	1.306260	city	8	1	0.929858	0.929858	0	1	0	0	CorrectCommission	0.988812	0.735200	0	0	7.617647e+00
99.067009	1.292740	city	2	1	0.873014	0.873014	0	1	0	0	CorrectCommission	1.271357	0.708255	1	0	7.529412e+00
100.359825	1.292898	city	3	1	1.314572	1.314572	0	1	0	0	CorrectCommission	0.923441	0.685180	1	0	7.441176e+00
101.659477	1.306392	city	9	1	1.214385	1.214385	0	1	0	0	CorrectCommission	0.425452	0.666389	1	0	7.352941e+00
102.959129	1.292926	city	10	1	1.108049	1.108049	0	1	0	0	CorrectCommission	0.103095	0.652277	1	0	7.264706e+00
104.245300	1.279408	city	5	1	1.074410	1.074410	0	1	0	0	CorrectCommission	0.270304	0.643137	1	0	7.176471e+00
105.524796	1.279592	city	4	1	1.143197	1.143197	0	1	0	0	CorrectCommission	0.071609	0.639029	1	0	7.088235e+00
108.897095	5.465000	break	0	1	0.975108	0.975108	0	0	0	0	ThoughtProbe	0.763890	0.639724	1	7	7
112.276062	1.292936	city	5	1	1.253652	1.253652	0	1	0	0	CorrectCommission	0.620636	0.644679	1	0	7.021739e+00
113.562309	1.279561	city	9	1	0.826937	0.826937	0	1	0	0	CorrectCommission	1.500387	0.653055	1	0	7.043478e+00
114.841881	1.279577	city	5	1	1.034765	1.034765	0	1	0	0	CorrectCommission	0.467363	0.663825	1	0	7.065217e+00
116.121460	1.279580	city	6	1	1.183038	1.183038	0	1	0	0	CorrectCommission	0.269642	0.675879	1	0	7.086957e+00
117.414383	1.306265	city	9	1	0.983315	0.983315	0	1	0	0	CorrectCommission	0.723098	0.688051	1	0	7.108696e+00
118.713966	1.292907	city	7	1	0.987634	0.987634	0	1	0	0	CorrectCommission	0.701631	0.699198	1	0	7.130435e+00
120.006813	1.292787	mountain	9	1	1.297342	1.297342	0	0	1	0	CommissionError	0.837797	0.708285	1	0	7.152174e+00
121.299713	1.293009	city	1	1	1.045548	1.045548	0	1	0	0	CorrectCommission	0.413763	0.714405	1	0	7.173913e+00
122.586014	1.279594	city	6	1	1.507403	1.507403	0	1	0	0	CorrectCommission	1.881921	0.716834	1	0	7.195652e+00
123.865593	1.279559	city	2	1	1.137552	1.137552	0	1	0	0	CorrectCommission	0.043551	0.714977	1	0	7.217391e+00
125.145172	1.279604	mountain	4	0	0.000000	1.240962	1	0	0	0	CorrectOmission	0.557555	0.708515	1	0	7.239130e+00
126.424736	1.279532	city	6	1	1.354780	1.354780	0	1	0	0	CorrectCommission	1.123296	0.697321	1	0	7.260870e+00
127.717598	1.306190	city	1	1	1.016156	1.016156	0	1	0	0	CorrectCommission	0.559861	0.681498	1	0	7.282609e+00
129.010529	1.279662	city	7	1	1.347596	1.347596	0	1	0	0	CorrectCommission	1.087589	0.661421	1	0	7.304348e+00
130.316803	1.332899	city	9	1	1.071662	1.071662	0	1	0	0	CorrectCommission	0.283961	0.637671	1	0	7.326087e+00
131.636383	1.306240	city	2	1	0.929043	0.929043	0	1	0	0	CorrectCommission	0.992860	0.611085	1	0	7.347826e+00
132.929291	1.279571	city	4	1	1.308653	1.308653	0	1	0	0	CorrectCommission	0.894022	0.582658	1	0	7.369565e+00
134.208847	1.279564	city	7	1	1.076335	1.076335	0	1	0	0	CorrectCommission	0.260734	0.553508	1	0	7.391304e+00
135.495010	1.292747	city	2	1	1.188272	1.188272	0	1	0	0	CorrectCommission	0.295656	0.524803	1	0	7.413043e+00
136.781189	1.279612	mountain	8	0	0.000000	1.217477	1	0	0	0	CorrectOmission	0.440825	0.497636	1	0	7.434783e+00
138.074112	1.306244	city	10	1	1.208217	1.208217	0	1	0	0	CorrectCommission	0.394796	0.472954	1	0	7.456522e+00
139.367081	1.279693	city	5	1	1.204756	1.204756	0	1	0	0	CorrectCommission	0.377590	0.451503	1	0	7.478261e+00
140.646652	1.279447	city	2	1	1.036274	1.036274	0	1	0	0	CorrectCommission	0.459861	0.433784	1	0	7.500000e+00
141.926163	1.279557	city	6	1	1.083490	1.083490	0	1	0	0	CorrectCommission	0.225168	0.420031	1	0	7.521739e+00
143.212463	1.293070	city	10	1	1.034375	1.034375	0	1	0	0	CorrectCommission	0.469300	0.410265	1	0	7.543478e+00
144.498795	1.279591	mountain	3	1	1.088454	1.088454	0	0	1	0	CommissionError	0.200498	0.404318	1	0	7.565217e+00
145.778305	1.279432	city	4	1	1.088503	1.088503	0	1	0	0	CorrectCommission	0.200252	0.401908	1	0	7.586957e+00
147.064545	1.293047	city	10	1	0.924213	0.924213	0	1	0	0	CorrectCommission	1.016869	0.402724	1	0	7.608696e+00
148.350830	1.279506	city	1	1	1.133362	1.133362	0	1	0	0	CorrectCommission	0.022720	0.406414	1	0	7.630435e+00
149.630341	1.279534	city	3	1	1.079059	1.079059	0	1	0	0	CorrectCommission	0.247192	0.412754	1	0	7.652174e+00
150.936615	1.333015	city	8	1	1.068350	1.068350	0	1	0	0	CorrectCommission	0.300422	0.421578	1	0	7.673913e+00
152.249573	1.292902	city	4	1	0.988613	0.988613	0	1	0	0	CorrectCommission	0.696765	0.432855	1	0	7.695652e+00
153.535828	1.279584	city	1	1	0.984039	0.984039	0	1	0	0	CorrectCommission	0.719497	0.446655	1	0	7.717391e+00
154.815353	1.279488	city	4	1	1.128785	1.128785	0	1	0	0	CorrectCommission	0.000029	0.463086	1	0	7.739130e+00
156.101532	1.292857	city	10	1	1.061132	1.061132	0	1	0	0	CorrectCommission	0.336300	0.482265	1	0	7.760870e+00
157.401154	1.306393	city	9	1	0.935445	0.935445	0	1	0	0	CorrectCommission	0.961038	0.504204	1	0	7.782609e+00
158.700821	1.292936	city	7	1	1.082125	1.082125	0	1	0	0	CorrectCommission	0.231956	0.528718	1	0	7.804348e+00
159.987000	1.279438	city	9	1	1.071639	1.071639	0	1	0	0	CorrectCommission	0.284079	0.555412	1	0	7.826087e+00
161.266571	1.279676	city	3	1	1.000283	1.000283	0	1	0	0	CorrectCommission	0.638756	0.583617	1	0	7.847826e+00
162.559540	1.306262	city	6	1	1.111451	1.111451	0	1	0	0	CorrectCommission	0.086189	0.612458	1	0	7.869565e+00
163.859116	1.292904	city	8	1	0.921029	0.921029	0	1	0	0	CorrectCommission	1.032697	0.640903	1	0	7.891304e+00
165.152023	1.292908	city	1	1	0.935146	0.935146	0	1	0	0	CorrectCommission	0.962527	0.667871	1	0	7.913043e+00
166.438263	1.279575	city	3	1	0.979103	0.979103	0	1	0	0	CorrectCommission	0.744033	0.692418	1	0	7.934783e+00
167.724503	1.292900	city	6	1	1.247038	1.247038	0	1	0	0	CorrectCommission	0.587759	0.713873	1	0	7.956522e+00
169.010727	1.279567	city	3	1	1.018460	1.018460	0	1	0	0	CorrectCommission	0.548407	0.731912	0	0	7.978261e+00
172.402878	5.504709	break	0	0	0.000000	1.342789	0	0	0	0	ThoughtProbe	1.063695	0.746632	0	8	8
175.801758	1.293061	city	6	1	1.596059	1.596059	0	1	0	0	CorrectCommission	2.322594	0.758494	0	0	7.950000e+00
177.094696	1.292804	city	10	1	1.154305	1.154305	0	1	0	0	CorrectCommission	0.126820	0.768201	0	0	7.900000e+00
178.387589	1.293005	mountain	6	1	1.083579	1.083579	0	0	1	0	CommissionError	0.224727	0.776594	0	0	7.850000e+00
179.673798	1.279415	city	7	1	1.255068	1.255068	0	1	0	0	CorrectCommission	0.627674	0.784339	0	0	7.800000e+00
180.960007	1.292982	city	10	1	1.137322	1.137322	0	1	0	0	CorrectCommission	0.042407	0.791821	0	0	7.750000e+00
182.246277	1.279562	city	2	1	1.354583	1.354583	0	1	0	0	CorrectCommission	1.122319	0.799052	0	0	7.700000e+00
183.532562	1.293000	city	6	1	1.266777	1.266777	0	1	0	0	CorrectCommission	0.685874	0.805628	0	0	7.650000e+00
184.818787	1.279454	city	9	1	0.976359	0.976359	0	1	0	0	CorrectCommission	0.757673	0.810880	0	0	7.600000e+00
186.098297	1.279585	city	5	1	1.524120	1.524120	0	1	0	0	CorrectCommission	1.965014	0.813986	0	0	7.550000e+00
187.384613	1.293048	city	8	1	1.037094	1.037094	0	1	0	0	CorrectCommission	0.455783	0.814191	0	0	7.500000e+00
188.697601	1.332909	city	10	1	1.001292	1.001292	0	1	0	0	CorrectCommission	0.633743	0.811066	0	0	7.450000e+00
190.010452	1.292787	city	3	1	0.980404	0.980404	0	1	0	0	CorrectCommission	0.737569	0.804550	0	0	7.400000e+00
191.296661	1.279634	mountain	3	1	0.722745	0.722745	0	0	1	0	CommissionError	2.018280	0.795055	0	0	7.350000e+00
192.576279	1.279624	city	9	1	1.194203	1.194203	0	1	0	0	CorrectCommission	0.325138	0.783402	0	0	7.300000e+00
193.869217	1.306253	city	8	1	1.240601	1.240601	0	1	0	0	CorrectCommission	0.555764	0.770771	0	0	7.250000e+00
195.162079	1.279472	city	4	1	1.034433	1.034433	0	1	0	0	CorrectCommission	0.469013	0.758450	0	0	7.200000e+00
196.441666	1.279675	city	10	1	0.911638	0.911638	0	1	0	0	CorrectCommission	1.079375	0.747648	0	0	7.150000e+00
197.721268	1.279551	city	5	1	1.138875	1.138875	0	1	0	0	CorrectCommission	0.050123	0.739323	0	0	7.100000e+00
199.007523	1.292957	city	8	1	1.031085	1.031085	0	1	0	0	CorrectCommission	0.485654	0.734095	0	0	7.050000e+00
200.293793	1.279587	city	10	1	0.928119	0.928119	0	1	0	0	CorrectCommission	0.997454	0.732108	0	0	7
201.600021	1.332857	city	1	1	0.877021	0.877021	0	1	0	0	CorrectCommission	1.251439	0.733059	0	0	6.950000e+00
202.912918	1.292929	city	5	1	1.055083	1.055083	0	1	0	0	CorrectCommission	0.366370	0.736259	0	0	6.900000e+00
204.199173	1.279590	city	9	1	1.018388	1.018388	0	1	0	0	CorrectCommission	0.548767	0.740761	0	0	6.850000e+00
205.478683	1.279429	mountain	2	0	0.000000	1.191241	1	0	0	0	CorrectOmission	0.310413	0.745488	0	0	6.800000e+00
206.758179	1.279568	city	4	1	1.243667	1.243667	0	1	0	0	CorrectCommission	0.571000	0.749410	0	0	6.750000e+00
208.051163	1.306395	city	8	1	0.845689	0.845689	0	1	0	0	CorrectCommission	1.407177	0.751656	0	0	6.700000e+00
209.344070	1.279421	city	10	1	0.762961	0.762961	0	1	0	0	CorrectCommission	1.818383	0.751639	0	0	6.650000e+00
210.643555	1.319557	city	2	1	0.994897	0.994897	0	1	0	0	CorrectCommission	0.665529	0.749091	0	0	6.600000e+00
211.956482	1.306282	city	5	1	1.054372	1.054372	0	1	0	0	CorrectCommission	0.369905	0.744134	0	0	6.550000e+00
213.256134	1.293038	city	9	1	1.032681	1.032681	0	1	0	0	CorrectCommission	0.477720	0.737158	0	0	6.500000e+00
214.549057	1.292809	city	3	1	0.983488	0.983488	0	1	0	0	CorrectCommission	0.722238	0.728725	0	0	6.450000e+00
215.835297	1.279649	city	2	1	1.083379	1.083379	0	1	0	0	CorrectCommission	0.225719	0.719552	1	0	6.400000e+00
217.114899	1.279581	city	10	1	0.973973	0.973973	0	1	0	0	CorrectCommission	0.769534	0.710443	1	0	6.350000e+00
218.394485	1.279579	city	8	1	1.342798	1.342798	0	1	0	0	CorrectCommission	1.063743	0.702280	1	0	6.300000e+00
219.674011	1.279482	city	6	1	0.858479	0.858479	0	1	0	0	CorrectCommission	1.343605	0.695991	1	0	6.250000e+00
220.953598	1.279675	city	4	1	1.192450	1.192450	0	1	0	0	CorrectCommission	0.316425	0.692622	1	0	6.200000e+00
222.253143	1.319435	city	2	1	1.052177	1.052177	0	1	0	0	CorrectCommission	0.380815	0.693293	1	0	6.150000e+00
223.566010	1.306299	city	9	1	0.999850	0.999850	0	1	0	0	CorrectCommission	0.640910	0.699126	1	0	6.100000e+00
224.872314	1.306304	city	1	1	0.988901	0.988901	0	1	0	0	CorrectCommission	0.695334	0.711072	1	0	6.050000e+00
228.431183	5.811426	break	0	1	1.029230	1.029230	0	0	0	0	ThoughtProbe	0.494874	0.729831	0	6	6
231.983292	1.292792	city	1	1	1.209637	1.209637	0	1	0	0	CorrectCommission	0.401854	0.755676	0	0	6.882353e+00
233.269501	1.279624	city	8	1	1.364907	1.364907	0	1	0	0	CorrectCommission	1.173638	0.788286	0	0	7.764706e+00
234.562393	1.306175	city	7	1	1.040822	1.040822	0	1	0	0	CorrectCommission	0.437255	0.826645	0	0	8.647059e+00
235.855331	1.279687	city	6	1	1.245468	1.245468	0	1	0	0	CorrectCommission	0.579953	0.869085	0	0	9.529412e+00
237.161636	1.332940	mountain	9	1	0.996487	0.996487	0	0	1	0	CommissionError	0.657624	0.913295	0	0	1.041176e+01
238.468262	1.280292	city	8	1	1.017463	1.017463	0	1	0	0	CorrectCommission	0.553362	0.956520	0	0	1.129412e+01
239.754440	1.292079	city	1	1	1.217084	1.217084	0	1	0	0	CorrectCommission	0.438868	0.995821	0	0	1.217647e+01
241.040314	1.279665	city	3	1	1.581318	1.581318	0	1	0	0	CorrectCommission	2.249324	1.028386	0	0	1.305882e+01
242.333267	1.306247	city	4	1	1.596887	1.596887	0	1	0	0	CorrectCommission	2.326710	1.051767	0	0	1.394118e+01
243.639526	1.306257	mountain	8	0	0.000000	1.521953	1	0	0	0	CorrectOmission	1.954244	1.064202	0	0	1.482353e+01
244.932434	1.279557	city	3	1	1.352507	1.352507	0	1	0	0	CorrectCommission	1.112001	1.064711	0	0	1.570588e+01
246.231979	1.319550	city	4	1	1.084542	1.084542	0	1	0	0	CorrectCommission	0.219941	1.053084	0	0	1.658824e+01
247.538239	1.292955	city	5	1	0.863088	0.863088	0	1	0	0	CorrectCommission	1.320696	1.029790	0	0	1.747059e+01
248.831085	1.292731	city	1	1	1.078629	1.078629	0	1	0	0	CorrectCommission	0.249332	0.995830	0	0	1.835294e+01
250.117233	1.279563	city	4	1	1.300512	1.300512	0	1	0	0	CorrectCommission	0.853554	0.952644	0	0	1.923529e+01
251.410202	1.306398	city	3	1	0.915962	0.915962	0	1	0	0	CorrectCommission	1.057880	0.901967	0	0	2.011765e+01
252.703201	1.279576	city	2	1	1.667321	1.667321	0	1	0	0	CorrectCommission	2.676807	0.845806	0	0	21
254.009445	1.332919	city	10	1	1.264268	1.264268	0	1	0	0	CorrectCommission	0.673400	0.786381	0	0	2.188235e+01
255.315674	1.279532	city	2	1	1.071364	1.071364	0	1	0	0	CorrectCommission	0.285442	0.726131	0	0	2.276471e+01
256.615204	1.319511	city	1	1	1.276943	1.276943	0	1	0	0	CorrectCommission	0.736402	0.667583	1	0	2.364706e+01
257.914764	1.279665	city	3	1	1.178454	1.178454	0	1	0	0	CorrectCommission	0.246857	0.613205	1	0	2.452941e+01
259.194336	1.279452	city	4	1	1.136777	1.136777	0	1	0	0	CorrectCommission	0.039698	0.565314	1	0	2.541176e+01
260.473907	1.279699	city	1	1	1.178370	1.178370	0	1	0	0	CorrectCommission	0.246437	0.525886	1	0	2.629412e+01
261.766815	1.306093	city	5	1	1.210036	1.210036	0	1	0	0	CorrectCommission	0.403835	0.496398	1	0	2.717647e+01
263.073059	1.306401	city	10	1	1.102026	1.102026	0	1	0	0	CorrectCommission	0.133036	0.477807	1	0	2.805882e+01
264.372711	1.292900	city	6	1	1.152442	1.152442	0	1	0	0	CorrectCommission	0.117563	0.470496	1	0	2.894118e+01
265.658936	1.279569	city	8	1	0.928109	0.928109	0	1	0	0	CorrectCommission	0.997502	0.474266	1	0	2.982353e+01
266.938904	1.280356	city	4	1	1.029599	1.029599	0	1	0	0	CorrectCommission	0.493040	0.488362	1	0	3.070588e+01
268.238403	1.318625	city	10	1	1.134704	1.134704	0	1	0	0	CorrectCommission	0.029393	0.511597	1	0	3.158824e+01
269.537567	1.279742	city	8	1	1.032548	1.032548	0	1	0	0	CorrectCommission	0.478379	0.542308	1	0	3.247059e+01
270.830505	1.306090	city	9	1	1.211157	1.211157	0	1	0	0	CorrectCommission	0.409408	0.578481	1	0	3.335294e+01
272.123322	1.279558	city	4	1	1.097178	1.097178	0	1	0	0	CorrectCommission	0.157132	0.617821	1	0	3.423529e+01
273.409637	1.293098	city	3	1	0.934324	0.934324	0	1	0	0	CorrectCommission	0.966613	0.657903	1	0	3.511765e+01
274.056183	10.569867	break	0	1	1.192302	1.192302	0	0	0	0	ThoughtProbe	0.315687	0.696308	1	36	36
285.272461	1.292806	city	1	1	0.931964	0.931964	0	1	0	0	CorrectCommission	0.978342	0.730797	0	0	3.512500e+01
286.558685	1.279661	city	8	1	0.819077	0.819077	0	1	0	0	CorrectCommission	1.539454	0.759501	0	0	3.425000e+01
287.864960	1.332877	city	2	1	0.774254	0.774254	0	1	0	0	CorrectCommission	1.762250	0.781070	0	0	3.337500e+01
289.171204	1.279589	mountain	3	0	0.000000	1.122494	1	0	0	0	CorrectOmission	0.031295	0.794782	0	0	3.250000e+01
290.457458	1.292900	city	4	1	1.360714	1.360714	0	1	0	0	CorrectCommission	1.152794	0.800578	0	0	3.162500e+01
291.743683	1.279581	mountain	6	1	0.985830	0.985830	0	0	1	0	CommissionError	0.710598	0.798968	0	0	3.075000e+01
293.029938	1.292913	city	3	1	1.324869	1.324869	0	1	0	0	CorrectCommission	0.974626	0.791049	0	0	2.987500e+01
294.316193	1.279596	city	7	1	1.337359	1.337359	0	1	0	0	CorrectCommission	1.036705	0.778252	0	0	29
295.602417	1.292872	city	2	1	1.110595	1.110595	0	1	0	0	CorrectCommission	0.090442	0.762262	0	0	2.812500e+01
296.895325	1.292923	city	9	1	0.930736	0.930736	0	1	0	0	CorrectCommission	0.984444	0.744934	0	0	2.725000e+01
298.188171	1.292766	city	6	1	0.885578	0.885578	0	1	0	0	CorrectCommission	1.208909	0.728124	0	0	2.637500e+01
299.474396	1.279715	city	5	1	1.037243	1.037243	0	1	0	0	CorrectCommission	0.455047	0.713679	1	0	2.550000e+01
300.780731	1.332912	city	10	1	1.115106	1.115106	0	1	0	0	CorrectCommission	0.068020	0.703368	1	0	2.462500e+01
302.086975	1.279586	city	9	1	1.356361	1.356361	0	1	0	0	CorrectCommission	1.131159	0.698798	1	0	2.375000e+01
303.393219	1.332895	city	3	1	1.129472	1.129472	0	1	0	0	CorrectCommission	0.003389	0.701315	1	0	2.287500e+01
304.826019	1.532737	city	7	1	1.398914	1.398914	0	1	0	0	CorrectCommission	1.342672	0.711957	1	0	2.200000e+01
306.238861	1.292931	city	5	1	1.162997	1.162997	0	1	0	0	CorrectCommission	0.170026	0.731251	0	0	2.112500e+01
307.531738	1.292843	mountain	8	0	0.000000	1.265142	1	0	0	0	CorrectOmission	0.677746	0.759176	0	0	2.025000e+01
308.818024	1.279693	city	9	1	1.369662	1.369662	0	1	0	0	CorrectCommission	1.197271	0.794955	0	0	1.937500e+01
310.130951	1.346200	city	6	1	1.140870	1.140870	0	1	0	0	CorrectCommission	0.060044	0.837058	0	0	1.850000e+01
311.457184	1.306252	city	1	1	1.205660	1.205660	0	1	0	0	CorrectCommission	0.382085	0.883217	0	0	1.762500e+01
312.763428	1.306229	city	9	1	1.279551	1.279551	0	1	0	0	CorrectCommission	0.749368	0.930618	0	0	1.675000e+01
314.056244	1.279443	city	8	1	0.987959	0.987959	0	1	0	0	CorrectCommission	0.700014	0.976185	0	0	1.587500e+01
315.355835	1.319724	city	5	1	0.914156	0.914156	0	1	0	0	CorrectCommission	1.066856	1.017012	0	0	15
316.662170	1.292921	city	1	1	1.312179	1.312179	0	1	0	0	CorrectCommission	0.911548	1.050789	0	0	1.412500e+01
317.955078	1.292903	city	5	1	1.861515	1.861515	0	1	0	0	CorrectCommission	3.642068	1.076228	0	0	1.325000e+01
319.241302	1.279566	city	7	1	1.568797	1.568797	0	1	0	0	CorrectCommission	2.187088	1.093160	0	0	1.237500e+01
320.527557	1.292922	city	4	1	1.296564	1.296564	0	1	0	0	CorrectCommission	0.833931	1.102670	0	0	1.150000e+01
321.813721	1.279425	city	6	1	1.309073	1.309073	0	1	0	0	CorrectCommission	0.896111	1.106723	0	0	1.062500e+01
323.119965	1.333046	city	10	1	1.214539	1.214539	0	1	0	0	CorrectCommission	0.426218	1.107658	0	0	9.750000e+00
324.426178	1.279408	city	2	1	1.322240	1.322240	0	1	0	0	CorrectCommission	0.961557	1.107648	0	0	8.875000e+00
325.725677	1.319564	city	5	1	1.175636	1.175636	0	1	0	0	CorrectCommission	0.232850	1.108085	0	0	8.000000e+00
327.031952	1.292979	city	3	1	1.103464	1.103464	0	1	0	0	CorrectCommission	0.125889	1.109285	0	0	7.125000e+00
328.318268	1.279691	city	7	1	1.366668	1.366668	0	1	0	0	CorrectCommission	1.182391	1.110346	0	0	6.250000e+00
329.604492	1.292739	city	4	1	1.340434	1.340434	0	1	0	0	CorrectCommission	1.051993	1.109327	0	0	5.375000e+00
330.910645	1.319576	city	3	1	1.341572	1.341572	0	1	0	0	CorrectCommission	1.057646	1.103755	0	0	4.500000e+00
332.216980	1.293061	city	1	1	1.622748	1.622748	0	1	0	0	CorrectCommission	2.455257	1.091234	0	0	3.625000e+00
333.509949	1.292894	city	8	1	1.583826	1.583826	0	1	0	0	CorrectCommission	2.261790	1.069989	0	0	2.750000e+00
334.802795	1.292771	city	9	1	1.581033	1.581033	0	1	0	0	CorrectCommission	2.247910	1.039440	0	0	1.875000e+00
338.148346	5.398376	break	0	1	1.087536	1.087536	0	0	0	0	ThoughtProbe	0.205057	1.000365	0	1	1
341.487274	1.279466	city	7	1	1.354279	1.354279	0	1	0	0	CorrectCommission	1.120810	0.954854	0	0	1.735294e+00
342.800171	1.346333	city	3	1	0.996248	0.996248	0	1	0	0	CorrectCommission	0.658813	0.905916	0	0	2.470588e+00
344.133148	1.319577	city	2	1	1.049092	1.049092	0	1	0	0	CorrectCommission	0.396149	0.857045	0	0	3.205882e+00
345.439362	1.292906	city	1	1	1.035156	1.035156	0	1	0	0	CorrectCommission	0.465419	0.811545	0	0	3.941176e+00
346.738922	1.306216	city	7	1	1.208689	1.208689	0	1	0	0	CorrectCommission	0.397144	0.772040	0	0	4.676471e+00
348.058441	1.332821	city	2	1	1.030749	1.030749	0	1	0	0	CorrectCommission	0.487325	0.740108	0	0	5.411765e+00
349.371368	1.292985	city	6	1	1.099699	1.099699	0	1	0	0	CorrectCommission	0.144602	0.716083	1	0	6.147059e+00
350.704285	1.372877	mountain	10	1	1.020961	1.020961	0	0	1	0	CommissionError	0.535978	0.699136	1	0	6.882353e+00
352.030518	1.279606	city	3	1	1.303378	1.303378	0	1	0	0	CorrectCommission	0.867801	0.687586	1	0	7.617647e+00
353.309967	1.279289	city	4	1	1.252344	1.252344	0	1	0	0	CorrectCommission	0.614134	0.679340	1	0	8.352941e+00
354.596222	1.293174	city	3	1	1.031965	1.031965	0	1	0	0	CorrectCommission	0.481278	0.672347	1	0	9.088235e+00
355.882599	1.279580	city	6	1	1.461019	1.461019	0	1	0	0	CorrectCommission	1.651370	0.665034	1	0	9.823529e+00
357.162170	1.279599	city	5	1	1.502184	1.502184	0	1	0	0	CorrectCommission	1.855981	0.656529	1	0	1.055882e+01
358.461731	1.319545	city	9	1	1.048040	1.048040	0	1	0	0	CorrectCommission	0.401378	0.646822	1	0	1.129412e+01
359.767914	1.292777	city	3	1	1.031834	1.031834	0	1	0	0	CorrectCommission	0.481930	0.636643	1	0	1.202941e+01
361.067474	1.306367	city	6	1	1.148972	1.148972	0	1	0	0	CorrectCommission	0.100314	0.627100	1	0	1.276471e+01
362.367126	1.292935	city	1	1	1.144006	1.144006	0	1	0	0	CorrectCommission	0.075630	0.619362	1	0	1.350000e+01
363.660034	1.292844	city	6	1	1.187235	1.187235	0	1	0	0	CorrectCommission	0.290500	0.614272	1	0	1.423529e+01
364.946259	1.279614	city	7	1	1.292436	1.292436	0	1	0	0	CorrectCommission	0.813414	0.612044	1	0	1.497059e+01
366.232422	1.292747	city	5	1	1.139684	1.139684	0	1	0	0	CorrectCommission	0.054144	0.612175	1	0	1.570588e+01
367.531952	1.306317	mountain	7	1	1.102214	1.102214	0	0	1	0	CommissionError	0.132103	0.613523	1	0	1.644118e+01
368.831604	1.292992	city	7	1	1.465758	1.465758	0	1	0	0	CorrectCommission	1.674924	0.614508	1	0	1.717647e+01
370.137909	1.319585	city	9	1	1.076237	1.076237	0	1	0	0	CorrectCommission	0.261223	0.613400	1	0	1.791176e+01
371.464142	1.332894	city	1	1	0.980290	0.980290	0	1	0	0	CorrectCommission	0.738135	0.608795	1	0	1.864706e+01
372.770294	1.279404	city	9	1	1.591888	1.591888	0	1	0	0	CorrectCommission	2.301865	0.599831	1	0	1.938235e+01
374.063202	1.306417	city	5	1	1.062561	1.062561	0	1	0	0	CorrectCommission	0.329199	0.586428	1	0	2.011765e+01
375.382843	1.332872	city	9	1	1.195558	1.195558	0	1	0	0	CorrectCommission	0.331871	0.569410	1	0	2.085294e+01
376.708984	1.319427	city	2	1	1.060298	1.060298	0	1	0	0	CorrectCommission	0.340446	0.550343	1	0	2.158824e+01
378.015259	1.293067	city	8	1	1.201600	1.201600	0	1	0	0	CorrectCommission	0.361906	0.531418	1	0	2.232353e+01
379.308228	1.292884	city	4	1	1.196922	1.196922	0	1	0	0	CorrectCommission	0.338651	0.515181	1	0	2.305882e+01
380.614441	1.319570	city	3	1	1.032324	1.032324	0	1	0	0	CorrectCommission	0.479496	0.504245	1	0	2.379412e+01
381.927338	1.306239	city	8	1	1.105833	1.105833	0	1	0	0	CorrectCommission	0.114113	0.501034	1	0	2.452941e+01
383.233521	1.306094	city	3	1	1.035868	1.035868	0	1	0	0	CorrectCommission	0.461879	0.507581	1	0	2.526471e+01
387.478760	7.184406	break	0	1	1.035459	1.035459	0	0	0	0	ThoughtProbe	0.463914	0.525305	1	26	26
391.717316	1.292715	city	7	1	1.196444	1.196444	0	1	0	0	CorrectCommission	0.336279	0.554970	1	0	2.543478e+01
393.003540	1.279680	mountain	9	0	0.000000	1.221860	1	0	0	0	CorrectOmission	0.462610	0.596587	1	0	2.486957e+01
394.283203	1.279702	mountain	1	0	0.000000	1.163554	1	0	0	0	CorrectOmission	0.172795	0.649401	1	0	2.430435e+01
395.582855	1.319586	city	9	1	1.073374	1.073374	0	1	0	0	CorrectCommission	0.275450	0.711928	1	0	2.373913e+01
396.895782	1.306236	city	3	1	1.003170	1.003170	0	1	0	0	CorrectCommission	0.624409	0.782002	0	0	2.317391e+01
398.215332	1.332891	city	9	1	0.840198	0.840198	0	1	0	0	CorrectCommission	1.434473	0.856957	0	0	2.260870e+01
399.528229	1.292893	city	8	1	1.044187	1.044187	0	1	0	0	CorrectCommission	0.420528	0.933791	0	0	2.204348e+01
400.827759	1.306159	city	3	1	0.988958	0.988958	0	1	0	0	CorrectCommission	0.695048	1.009461	0	0	2.147826e+01
402.134003	1.306338	city	6	1	0.848346	0.848346	0	1	0	0	CorrectCommission	1.393970	1.081077	0	0	2.091304e+01
403.433594	1.292824	city	4	1	0.788924	0.788924	0	1	0	0	CorrectCommission	1.689331	1.146086	0	0	2.034783e+01
404.746429	1.332868	mountain	7	1	0.553079	0.553079	0	0	1	0	CommissionError	2.861621	1.202531	0	0	1.978261e+01
406.066040	1.306353	city	10	1	1.327987	1.327987	0	1	0	0	CorrectCommission	0.990122	1.249081	0	0	1.921739e+01
407.378998	1.319555	city	9	1	1.193114	1.193114	0	1	0	0	CorrectCommission	0.319726	1.285055	0	0	1.865217e+01
408.698547	1.319573	city	1	1	0.890862	0.890862	0	1	0	0	CorrectCommission	1.182643	1.310372	0	0	1.808696e+01
409.998138	1.279574	city	9	1	1.528264	1.528264	0	1	0	0	CorrectCommission	1.985615	1.325348	0	0	1.752174e+01
411.277649	1.279486	city	7	1	1.526314	1.526314	0	1	0	0	CorrectCommission	1.975922	1.330611	0	0	1.695652e+01
412.577240	1.319673	city	2	1	1.457028	1.457028	0	1	0	0	CorrectCommission	1.631533	1.326949	0	0	1.639130e+01
413.883514	1.292891	city	7	1	1.314432	1.314432	0	1	0	0	CorrectCommission	0.922748	1.315207	0	0	1.582609e+01
415.189758	1.319575	city	8	1	1.084152	1.084152	0	1	0	0	CorrectCommission	0.221880	1.296195	0	0	1.526087e+01
416.496002	1.292896	city	10	1	0.703057	0.703057	0	1	0	0	CorrectCommission	2.116140	1.270698	0	0	1.469565e+01
417.808899	1.332903	city	5	1	0.888537	0.888537	0	1	0	0	CorrectCommission	1.194201	1.239411	0	0	1.413043e+01
419.135071	1.319438	city	7	1	1.542570	1.542570	0	1	0	0	CorrectCommission	2.056723	1.203085	0	0	1.356522e+01
420.467957	1.346349	mountain	10	1	1.468941	1.468941	0	0	1	0	CommissionError	1.690747	1.162472	0	0	13
421.834229	1.386193	city	9	1	1.177756	1.177756	0	1	0	0	CorrectCommission	0.243385	1.118392	0	0	1.243478e+01
423.193695	1.332769	city	7	1	0.942928	0.942928	0	1	0	0	CorrectCommission	0.923845	1.071760	0	0	1.186957e+01
424.513275	1.306387	city	9	1	0.877434	0.877434	0	1	0	0	CorrectCommission	1.249388	1.023494	0	0	1.130435e+01
425.839508	1.346086	city	8	1	0.982957	0.982957	0	1	0	0	CorrectCommission	0.724876	0.974541	0	0	1.073913e+01
427.159088	1.293021	city	10	1	0.877046	0.877046	0	1	0	0	CorrectCommission	1.251318	0.925871	0	0	1.017391e+01
428.445374	1.279595	city	4	1	1.072544	1.072544	0	1	0	0	CorrectCommission	0.279576	0.878419	0	0	9.608696e+00
429.731628	1.292914	city	3	1	0.946119	0.946119	0	1	0	0	CorrectCommission	0.907982	0.833155	0	0	9.043478e+00
431.017883	1.279559	city	8	1	0.804299	0.804299	0	1	0	0	CorrectCommission	1.612910	0.791022	0	0	8.478261e+00
432.324097	1.332915	city	7	1	1.164376	1.164376	0	1	0	0	CorrectCommission	0.176879	0.752961	0	0	7.913043e+00
433.657013	1.332884	city	10	1	0.910991	0.910991	0	1	0	0	CorrectCommission	1.082591	0.719895	0	0	7.347826e+00
434.976562	1.306226	city	5	1	1.100832	1.100832	0	1	0	0	CorrectCommission	0.138972	0.692610	1	0	6.782609e+00
436.289429	1.319493	city	8	1	1.004074	1.004074	0	1	0	0	CorrectCommission	0.619913	0.671792	1	0	6.217391e+00
437.622345	1.346321	city	2	1	1.084892	1.084892	0	1	0	0	CorrectCommission	0.218202	0.657866	1	0	5.652174e+00
438.948517	1.306070	city	3	1	1.247296	1.247296	0	1	0	0	CorrectCommission	0.589039	0.650974	1	0	5.086957e+00
440.268036	1.332977	city	10	1	1.105339	1.105339	0	1	0	0	CorrectCommission	0.116566	0.650995	1	0	4.521739e+00
441.574310	1.279546	city	4	1	1.316827	1.316827	0	1	0	0	CorrectCommission	0.934649	0.657563	1	0	3.956522e+00
442.887268	1.346339	city	10	1	1.293634	1.293634	0	1	0	0	CorrectCommission	0.819368	0.670094	1	0	3.391304e+00
444.213470	1.306124	city	8	1	0.951937	0.951937	0	1	0	0	CorrectCommission	0.879066	0.687878	1	0	2.826087e+00
445.526245	1.319425	city	10	1	0.960635	0.960635	0	1	0	0	CorrectCommission	0.835828	0.710048	1	0	2.260870e+00
446.832550	1.293146	city	6	1	1.085596	1.085596	0	1	0	0	CorrectCommission	0.214700	0.735664	0	0	1.695652e+00
448.132233	1.306230	city	8	1	0.994607	0.994607	0	1	0	0	CorrectCommission	0.666971	0.763643	0	0	1.130435e+00
449.431763	1.292845	city	6	1	0.982687	0.982687	0	1	0	0	CorrectCommission	0.726219	0.792712	0	0	5.652174e-01
453.337189	6.517974	break	0	0	0.000000	1.275427	0	0	0	0	ThoughtProbe	0.728870	0.821442	0	0	0
457.249207	1.306053	city	1	1	1.464292	1.464292	0	1	0	0	CorrectCommission	1.667637	0.848209	0	0	0
458.615387	1.426325	city	6	1	1.140745	1.140745	0	1	0	0	CorrectCommission	0.059419	0.871257	0	0	0
459.994904	1.332748	city	1	1	1.021956	1.021956	0	1	0	0	CorrectCommission	0.531032	0.888870	0	0	0
461.314514	1.306414	city	9	1	0.830558	0.830558	0	1	0	0	CorrectCommission	1.482390	0.899426	0	0	0
462.607483	1.279557	city	7	1	0.784353	0.784353	0	1	0	0	CorrectCommission	1.712055	0.901639	0	0	0
463.907043	1.319544	city	6	1	0.850304	0.850304	0	1	0	0	CorrectCommission	1.384240	0.894737	0	0	0
465.239929	1.346218	city	5	1	1.103689	1.103689	0	1	0	0	CorrectCommission	0.124771	0.878563	0	0	0
466.552826	1.279630	mountain	2	0	0.000000	1.401476	1	0	0	0	CorrectOmission	1.355406	0.853716	0	0	0
467.839111	1.292912	city	4	1	1.484522	1.484522	0	1	0	0	CorrectCommission	1.768190	0.821426	0	0	0
469.165253	1.359377	city	7	1	1.093681	1.093681	0	1	0	0	CorrectCommission	0.174516	0.783534	0	0	0
470.498138	1.306381	city	9	1	0.898465	0.898465	0	1	0	0	CorrectCommission	1.144849	0.742333	0	0	0
471.797791	1.292908	city	2	1	1.030681	1.030681	0	1	0	0	CorrectCommission	0.487663	0.700298	1	0	0
473.083984	1.279534	mountain	9	0	0.000000	1.081673	1	0	0	0	CorrectOmission	0.234200	0.659938	1	0	0
474.383575	1.319592	city	10	1	1.100464	1.100464	0	1	0	0	CorrectCommission	0.140801	0.623569	1	0	0
475.696411	1.306114	city	7	1	1.136072	1.136072	0	1	0	0	CorrectCommission	0.036191	0.593276	1	0	0
476.996002	1.293051	city	8	1	0.867670	0.867670	0	1	0	0	CorrectCommission	1.297922	0.570806	1	0	0
478.302246	1.319428	city	7	1	0.974488	0.974488	0	1	0	0	CorrectCommission	0.766971	0.557582	1	0	0
479.615143	1.306379	mountain	7	0	0.000000	1.115425	1	0	0	0	CorrectOmission	0.066435	0.554770	1	0	0
480.914795	1.292929	city	2	1	1.196917	1.196917	0	1	0	0	CorrectCommission	0.338629	0.563299	1	0	0
482.207703	1.292889	city	9	1	1.125403	1.125403	0	1	0	0	CorrectCommission	0.016838	0.583777	1	0	0
483.513855	1.319411	city	3	1	0.914766	0.914766	0	1	0	0	CorrectCommission	1.063828	0.616461	1	0	0
484.840027	1.332953	city	5	1	1.243645	1.243645	0	1	0	0	CorrectCommission	0.570894	0.661087	1	0	0
486.159698	1.306344	city	1	1	1.156368	1.156368	0	1	0	0	CorrectCommission	0.137077	0.716716	1	0	0
487.472656	1.319596	city	7	1	1.221941	1.221941	0	1	0	0	CorrectCommission	0.463013	0.781610	0	0	0
488.818878	1.372835	city	8	1	0.954429	0.954429	0	1	0	0	CorrectCommission	0.866679	0.853057	0	0	0
490.165009	1.319417	city	7	1	1.063756	1.063756	0	1	0	0	CorrectCommission	0.323260	0.927385	0	0	0
491.491211	1.333040	city	10	1	0.994094	0.994094	0	1	0	0	CorrectCommission	0.669518	1.000086	0	0	0
492.797546	1.279606	city	3	1	1.445015	1.445015	0	1	0	0	CorrectCommission	1.571818	1.066115	0	0	0
494.123779	1.372835	city	9	1	0.891235	0.891235	0	1	0	0	CorrectCommission	1.180791	1.120215	0	0	0
495.456665	1.292935	city	6	1	0.804163	0.804163	0	1	0	0	CorrectCommission	1.613587	1.157421	0	0	0
496.742920	1.279575	city	5	1	1.620945	1.620945	0	1	0	0	CorrectCommission	2.446294	1.173500	0	0	0
498.035828	1.306234	city	2	1	1.606449	1.606449	0	1	0	0	CorrectCommission	2.374240	1.165384	0	0	0
499.381958	1.386060	city	10	1	1.172547	1.172547	0	1	0	0	CorrectCommission	0.217493	1.131415	0	0	0
500.728119	1.306255	city	7	1	1.727260	1.727260	0	1	0	0	CorrectCommission	2.974739	1.071521	0	0	0
502.034424	1.306370	city	5	1	1.394936	1.394936	0	1	0	0	CorrectCommission	1.322899	0.987001	0	0	0
503.340668	1.306095	city	3	1	1.336188	1.336188	0	1	0	0	CorrectCommission	1.030886	0.880478	0	0	0
504.673584	1.359720	city	2	1	1.104404	1.104404	0	1	0	0	CorrectCommission	0.121216	0.755522	0	0	0
506.039856	1.372874	city	5	1	0.972464	0.972464	0	1	0	0	CorrectCommission	0.777032	0.616350	1	0	0
507.379425	1.306247	city	3	1	1.149198	1.149198	0	1	0	0	CorrectCommission	0.101435	0.467537	1	0	0
510.971649	5.878195	break	0	0	1.191937	1.191937	0	0	0	0	ThoughtProbe	0.313873	0.313873	1	0	0
