onset	duration	trial_type	image_type	Press	ReactionTime	ReactionTime_Interpolated	CorrectOmission	CorrectCommission	CommissionError	OmissionError	response_type	nonsmoothVarianceTimeCourse	VarianceTimeCourse	In_the_Zone	ThoughtProbe	ThoughtProbe_Interpolated
0.652906	1.279737	city	10	1	1.125119	1.125119	0	1	0	0	CorrectCommission	0.214980	0.214980	1	0	93
1.945801	1.306054	city	8	1	1.029793	1.029793	0	1	0	0	CorrectCommission	0.615887	0.271741	1	0	93
3.245294	1.292930	city	4	1	0.902498	0.902498	0	1	0	0	CorrectCommission	1.151243	0.324929	1	0	93
4.531631	1.279743	city	7	1	0.963925	0.963925	0	1	0	0	CorrectCommission	0.892904	0.371452	1	0	93
5.811199	1.279394	city	8	1	0.821377	0.821377	0	1	0	0	CorrectCommission	1.492407	0.409086	1	0	93
7.090690	1.279588	mountain	6	0	0.000000	1.023987	1	0	0	0	CorrectOmission	0.640307	0.436662	1	0	93
8.370357	1.279745	city	9	1	1.231508	1.231508	0	1	0	0	CorrectCommission	0.232453	0.454121	1	0	93
9.650006	1.279555	city	3	1	1.103697	1.103697	0	1	0	0	CorrectCommission	0.305072	0.462302	1	0	93
10.929515	1.279461	city	9	1	1.145927	1.145927	0	1	0	0	CorrectCommission	0.127470	0.462651	1	0	93
12.215771	1.293051	city	2	1	1.109511	1.109511	0	1	0	0	CorrectCommission	0.280621	0.456921	1	0	93
13.502073	1.279554	city	5	1	1.017680	1.017680	0	1	0	0	CorrectCommission	0.666829	0.446859	1	0	93
14.781563	1.279427	city	9	1	1.129074	1.129074	0	1	0	0	CorrectCommission	0.198347	0.434036	1	0	93
16.061165	1.279775	mountain	4	0	0.000000	1.278614	1	0	0	0	CorrectOmission	0.430565	0.419784	1	0	93
17.347404	1.292706	city	7	1	1.297734	1.297734	0	1	0	0	CorrectCommission	0.510976	0.405155	1	0	93
18.633640	1.279766	city	3	1	1.017868	1.017868	0	1	0	0	CorrectCommission	0.666040	0.391065	1	0	93
19.913292	1.279537	city	7	1	1.350153	1.350153	0	1	0	0	CorrectCommission	0.731431	0.378363	1	0	93
21.199442	1.292763	city	6	1	1.244893	1.244893	0	1	0	0	CorrectCommission	0.288745	0.367907	1	0	93
22.485641	1.279636	city	9	1	1.154244	1.154244	0	1	0	0	CorrectCommission	0.092490	0.360590	1	0	93
23.765295	1.279671	city	8	1	1.177489	1.177489	0	1	0	0	CorrectCommission	0.005270	0.357282	1	0	93
25.044870	1.279482	city	9	1	1.284588	1.284588	0	1	0	0	CorrectCommission	0.455687	0.358707	1	0	93
26.324387	1.279548	mountain	3	0	0.000000	1.248278	1	0	0	0	CorrectOmission	0.302983	0.365300	1	0	93
27.604025	1.279729	city	10	1	1.178328	1.178328	0	1	0	0	CorrectCommission	0.008795	0.377102	1	0	93
28.883678	1.279579	city	8	1	1.184502	1.184502	0	1	0	0	CorrectCommission	0.034763	0.393685	1	0	93
30.163263	1.279589	city	2	1	1.230807	1.230807	0	1	0	0	CorrectCommission	0.229506	0.414125	1	0	93
31.442822	1.279530	city	4	1	1.334760	1.334760	0	1	0	0	CorrectCommission	0.666691	0.437085	1	0	93
32.722404	1.279636	city	10	1	0.978997	0.978997	0	1	0	0	CorrectCommission	0.829518	0.460989	1	0	93
34.001961	1.279479	city	8	1	1.039394	1.039394	0	1	0	0	CorrectCommission	0.575508	0.484191	1	0	93
35.281528	1.279651	city	7	1	1.231484	1.231484	0	1	0	0	CorrectCommission	0.232351	0.505251	1	0	93
36.587730	1.332756	city	1	1	1.040005	1.040005	0	1	0	0	CorrectCommission	0.572941	0.523144	1	0	93
37.900551	1.292884	city	4	1	1.261671	1.261671	0	1	0	0	CorrectCommission	0.359306	0.537413	1	0	93
39.193493	1.293001	city	7	1	1.479977	1.479977	0	1	0	0	CorrectCommission	1.277422	0.548280	1	0	93
40.479828	1.279671	city	9	1	1.509978	1.509978	0	1	0	0	CorrectCommission	1.403597	0.556603	1	0	93
41.772766	1.306201	city	6	1	1.176489	1.176489	0	1	0	0	CorrectCommission	0.001062	0.563782	1	0	93
43.065590	1.279450	city	5	1	1.391543	1.391543	0	1	0	0	CorrectCommission	0.905503	0.571516	1	0	93
44.351780	1.292927	city	10	1	1.128308	1.128308	0	1	0	0	CorrectCommission	0.201568	0.581445	1	0	93
45.638023	1.279558	city	1	1	1.198391	1.198391	0	1	0	0	CorrectCommission	0.093175	0.594865	1	0	93
46.930912	1.306221	city	4	1	1.207565	1.207565	0	1	0	0	CorrectCommission	0.131756	0.612424	1	0	93
48.223919	1.279792	city	2	1	1.145238	1.145238	0	1	0	0	CorrectCommission	0.130368	0.633953	1	0	93
49.503525	1.279419	city	9	1	1.396529	1.396529	0	1	0	0	CorrectCommission	0.926472	0.658451	1	0	93
52.869076	5.451689	break	0	0	0.000000	1.304620	0	0	0	0	ThoughtProbe	0.539936	0.684192	1	93	93
56.234703	1.279564	mountain	10	0	0.000000	1.061331	1	0	0	0	CorrectOmission	0.483251	0.709037	1	0	9.277500e+01
57.514206	1.279441	city	4	1	0.858480	0.858480	0	1	0	0	CorrectCommission	1.336365	0.730721	0	0	9.255000e+01
58.793682	1.279510	city	7	1	0.887889	0.887889	0	1	0	0	CorrectCommission	1.212683	0.747225	0	0	9.232500e+01
60.086643	1.306411	city	6	1	0.916371	0.916371	0	1	0	0	CorrectCommission	1.092897	0.757085	0	0	9.210000e+01
61.386230	1.292765	city	7	1	0.768948	0.768948	0	1	0	0	CorrectCommission	1.712906	0.759554	0	0	9.187500e+01
62.672489	1.279748	mountain	6	0	0.000000	1.009729	1	0	0	0	CorrectOmission	0.700270	0.754616	0	0	9.165000e+01
63.952141	1.279556	city	4	1	1.231616	1.231616	0	1	0	0	CorrectCommission	0.232905	0.742917	0	0	9.142500e+01
65.231712	1.279587	city	5	1	1.027510	1.027510	0	1	0	0	CorrectCommission	0.625487	0.725553	0	0	9.120000e+01
66.544563	1.346111	city	2	1	1.031458	1.031458	0	1	0	0	CorrectCommission	0.608884	0.703836	1	0	9.097500e+01
67.857491	1.279752	city	4	1	1.231669	1.231669	0	1	0	0	CorrectCommission	0.233131	0.679113	1	0	9.075000e+01
69.137131	1.279532	city	1	1	1.087422	1.087422	0	1	0	0	CorrectCommission	0.373519	0.652648	1	0	9.052500e+01
70.436615	1.319438	city	9	1	0.844090	0.844090	0	1	0	0	CorrectCommission	1.396887	0.625543	1	0	9.030000e+01
71.736778	1.280881	city	4	1	1.045858	1.045858	0	1	0	0	CorrectCommission	0.548321	0.598736	1	0	9.007500e+01
73.016342	1.278242	city	7	1	0.865755	0.865755	0	1	0	0	CorrectCommission	1.305771	0.573115	1	0	8.985000e+01
74.295326	1.279730	city	5	1	1.097339	1.097339	0	1	0	0	CorrectCommission	0.331814	0.549521	1	0	8.962500e+01
75.581642	1.292900	mountain	2	0	0.000000	1.150647	1	0	0	0	CorrectOmission	0.107620	0.528799	1	0	8.940000e+01
76.867851	1.279525	city	5	1	1.125511	1.125511	0	1	0	0	CorrectCommission	0.213332	0.511752	1	0	8.917500e+01
78.154106	1.292974	city	2	1	1.121763	1.121763	0	1	0	0	CorrectCommission	0.229094	0.499092	1	0	8.895000e+01
79.453720	1.306262	city	3	1	1.045850	1.045850	0	1	0	0	CorrectCommission	0.548358	0.491389	1	0	8.872500e+01
80.746544	1.279381	city	5	1	1.021631	1.021631	0	1	0	0	CorrectCommission	0.650213	0.489008	1	0	8.850000e+01
82.032730	1.293000	city	7	1	1.206684	1.206684	0	1	0	0	CorrectCommission	0.128053	0.492059	1	0	8.827500e+01
83.318977	1.279496	city	8	1	1.295175	1.295175	0	1	0	0	CorrectCommission	0.500211	0.500432	1	0	8.805000e+01
84.598602	1.279744	city	6	1	1.123150	1.123150	0	1	0	0	CorrectCommission	0.223262	0.513752	1	0	8.782500e+01
85.898193	1.319443	city	3	1	1.013565	1.013565	0	1	0	0	CorrectCommission	0.684137	0.531449	1	0	8.760000e+01
87.204330	1.292823	city	5	1	1.375860	1.375860	0	1	0	0	CorrectCommission	0.839545	0.552735	1	0	8.737500e+01
88.517204	1.332933	city	2	1	1.091036	1.091036	0	1	0	0	CorrectCommission	0.358322	0.576664	1	0	8.715000e+01
89.836884	1.306426	city	10	1	1.043913	1.043913	0	1	0	0	CorrectCommission	0.556504	0.602140	1	0	8.692500e+01
91.129875	1.279548	city	2	1	1.334237	1.334237	0	1	0	0	CorrectCommission	0.664493	0.627925	1	0	8.670000e+01
92.436020	1.332755	city	9	1	1.139582	1.139582	0	1	0	0	CorrectCommission	0.154156	0.652672	1	0	8.647500e+01
93.748848	1.292893	city	2	1	0.885723	0.885723	0	1	0	0	CorrectCommission	1.221794	0.674978	1	0	8.625000e+01
95.035080	1.279572	city	9	1	1.020738	1.020738	0	1	0	0	CorrectCommission	0.653967	0.693421	1	0	8.602500e+01
96.321411	1.293095	city	5	1	1.055555	1.055555	0	1	0	0	CorrectCommission	0.507542	0.706721	1	0	8.580000e+01
97.614395	1.292866	city	1	1	1.404241	1.404241	0	1	0	0	CorrectCommission	0.958906	0.713825	1	0	8.557500e+01
98.900558	1.279458	city	6	1	1.400984	1.400984	0	1	0	0	CorrectCommission	0.945205	0.714010	1	0	8.535000e+01
100.193466	1.306371	city	5	1	1.452682	1.452682	0	1	0	0	CorrectCommission	1.162630	0.707046	1	0	8.512500e+01
101.486366	1.279423	city	2	1	1.458012	1.458012	0	1	0	0	CorrectCommission	1.185047	0.693206	1	0	8.490000e+01
102.765953	1.279743	city	5	1	1.309893	1.309893	0	1	0	0	CorrectCommission	0.562112	0.673266	1	0	8.467500e+01
104.052299	1.292958	city	9	1	1.363993	1.363993	0	1	0	0	CorrectCommission	0.789637	0.648454	1	0	8.445000e+01
105.365211	1.332862	city	2	1	1.293238	1.293238	0	1	0	0	CorrectCommission	0.492066	0.620285	1	0	8.422500e+01
109.130554	6.197832	break	0	0	0.000000	1.142364	0	0	0	0	ThoughtProbe	0.142457	0.590465	1	84	84
112.895958	1.332964	city	8	1	1.046415	1.046415	0	1	0	0	CorrectCommission	0.545979	0.560678	1	0	8.367647e+01
114.202248	1.279615	city	7	1	1.140439	1.140439	0	1	0	0	CorrectCommission	0.150552	0.532473	1	0	8.335294e+01
115.495171	1.306238	city	2	1	1.456910	1.456910	0	1	0	0	CorrectCommission	1.180413	0.507208	1	0	8.302941e+01
116.794670	1.292764	city	5	1	1.101238	1.101238	0	1	0	0	CorrectCommission	0.315414	0.485947	1	0	8.270588e+01
118.087585	1.293064	mountain	5	0	0.000000	1.162958	1	0	0	0	CorrectOmission	0.055844	0.469502	1	0	8.238235e+01
119.380577	1.292913	city	2	1	1.325446	1.325446	0	1	0	0	CorrectCommission	0.627521	0.458426	1	0	8.205882e+01
120.680153	1.306244	city	4	1	1.272079	1.272079	0	1	0	0	CorrectCommission	0.403081	0.452986	1	0	8.173529e+01
121.972977	1.279399	city	8	1	1.135763	1.135763	0	1	0	0	CorrectCommission	0.170215	0.453257	1	0	8.141176e+01
123.252556	1.279766	city	7	1	1.231544	1.231544	0	1	0	0	CorrectCommission	0.232604	0.459131	1	0	8.108824e+01
124.538872	1.292859	city	1	1	1.004741	1.004741	0	1	0	0	CorrectCommission	0.721245	0.470324	1	0	8.076471e+01
125.825096	1.279599	city	7	1	1.129120	1.129120	0	1	0	0	CorrectCommission	0.198156	0.486468	1	0	8.044118e+01
127.104614	1.279436	city	10	1	1.243034	1.243034	0	1	0	0	CorrectCommission	0.280927	0.507144	1	0	8.011765e+01
128.384125	1.279581	mountain	4	0	0.000000	1.115477	1	0	0	0	CorrectOmission	0.255532	0.531908	1	0	7.979412e+01
129.663788	1.279746	city	8	1	0.931772	0.931772	0	1	0	0	CorrectCommission	1.028126	0.560360	1	0	7.947059e+01
130.943359	1.279404	city	2	1	0.877245	0.877245	0	1	0	0	CorrectCommission	1.257449	0.592066	1	0	7.914706e+01
132.222946	1.279761	city	8	1	1.233798	1.233798	0	1	0	0	CorrectCommission	0.242084	0.626609	1	0	7.882353e+01
133.509262	1.292871	city	7	1	1.205954	1.205954	0	1	0	0	CorrectCommission	0.124982	0.663520	1	0	7.850000e+01
134.795410	1.279420	city	9	1	1.232619	1.232619	0	1	0	0	CorrectCommission	0.237123	0.702166	1	0	7.817647e+01
136.081573	1.292927	city	3	1	1.616286	1.616286	0	1	0	0	CorrectCommission	1.850690	0.741714	0	0	7.785294e+01
137.421143	1.386211	city	8	1	1.244074	1.244074	0	1	0	0	CorrectCommission	0.285300	0.781062	0	0	7.752941e+01
138.755219	1.281927	city	3	1	1.082688	1.082688	0	1	0	0	CorrectCommission	0.393430	0.818921	0	0	7.720588e+01
140.061478	1.330584	city	6	1	1.024658	1.024658	0	1	0	0	CorrectCommission	0.637485	0.853816	0	0	7.688235e+01
141.366623	1.279709	city	2	1	0.872309	0.872309	0	1	0	0	CorrectCommission	1.278207	0.884213	0	0	7.655882e+01
142.672852	1.332745	city	1	1	1.014716	1.014716	0	1	0	0	CorrectCommission	0.679297	0.908710	0	0	7.623529e+01
143.979095	1.279741	city	2	1	1.728063	1.728063	0	1	0	0	CorrectCommission	2.320783	0.926224	0	0	7.591176e+01
145.258743	1.279563	city	9	1	1.455036	1.455036	0	1	0	0	CorrectCommission	1.172528	0.936051	0	0	7.558824e+01
146.538300	1.279543	city	2	1	0.927936	0.927936	0	1	0	0	CorrectCommission	1.044259	0.938067	0	0	7.526471e+01
147.831116	1.306095	city	3	1	0.927731	0.927731	0	1	0	0	CorrectCommission	1.045121	0.932622	0	0	7.494118e+01
149.150711	1.333106	city	5	1	1.165794	1.165794	0	1	0	0	CorrectCommission	0.043916	0.920513	0	0	7.461765e+01
150.456955	1.279389	city	6	1	0.977209	0.977209	0	1	0	0	CorrectCommission	0.837035	0.902929	0	0	7.429412e+01
151.749863	1.306397	city	8	1	0.885195	0.885195	0	1	0	0	CorrectCommission	1.224014	0.881230	0	0	7.397059e+01
153.042801	1.279496	city	2	1	0.970053	0.970053	0	1	0	0	CorrectCommission	0.867130	0.856865	0	0	7.364706e+01
154.322296	1.279490	city	4	1	1.604058	1.604058	0	1	0	0	CorrectCommission	1.799260	0.831277	0	0	7.332353e+01
157.781204	5.638321	break	0	1	1.230541	1.230541	0	0	0	0	ThoughtProbe	0.228385	0.805745	0	73	73
161.246719	1.292719	city	4	1	1.360279	1.360279	0	1	0	0	CorrectCommission	0.774015	0.781382	0	0	7.297500e+01
162.592941	1.399727	city	9	1	1.030798	1.030798	0	1	0	0	CorrectCommission	0.611660	0.758968	0	0	7.295000e+01
163.932495	1.279390	mountain	2	0	0.000000	1.116158	1	0	0	0	CorrectOmission	0.252669	0.738933	0	0	7.292500e+01
165.218750	1.293091	city	3	1	1.204337	1.204337	0	1	0	0	CorrectCommission	0.118182	0.721374	0	0	7.290000e+01
166.511749	1.292908	city	8	1	0.883317	0.883317	0	1	0	0	CorrectCommission	1.231912	0.706098	1	0	7.287500e+01
167.804565	1.292726	city	6	1	0.982598	0.982598	0	1	0	0	CorrectCommission	0.814371	0.692654	1	0	7.285000e+01
169.104080	1.306311	city	9	1	0.940806	0.940806	0	1	0	0	CorrectCommission	0.990132	0.680508	1	0	7.282500e+01
170.403656	1.292842	mountain	3	0	0.000000	1.049902	1	0	0	0	CorrectOmission	0.531316	0.669202	1	0	7.280000e+01
171.689941	1.279740	city	4	1	1.087772	1.087772	0	1	0	0	CorrectCommission	0.372048	0.658471	1	0	7.277500e+01
172.982849	1.306070	city	5	1	0.832305	0.832305	0	1	0	0	CorrectCommission	1.446451	0.648328	1	0	7.275000e+01
174.289032	1.306289	city	2	1	1.205128	1.205128	0	1	0	0	CorrectCommission	0.121507	0.639072	1	0	7.272500e+01
175.588608	1.292869	city	10	1	0.994109	0.994109	0	1	0	0	CorrectCommission	0.765962	0.631438	1	0	7.270000e+01
176.874863	1.279651	city	5	1	1.230804	1.230804	0	1	0	0	CorrectCommission	0.229490	0.626421	1	0	7.267500e+01
178.167847	1.306311	city	6	1	1.165897	1.165897	0	1	0	0	CorrectCommission	0.043484	0.625320	1	0	7.265000e+01
179.480713	1.319411	city	10	1	0.794608	0.794608	0	1	0	0	CorrectCommission	1.604990	0.629580	1	0	7.262500e+01
180.780212	1.279601	city	9	1	0.968978	0.968978	0	1	0	0	CorrectCommission	0.871651	0.640622	1	0	7.260000e+01
182.066467	1.292910	city	7	1	1.261010	1.261010	0	1	0	0	CorrectCommission	0.356528	0.659797	1	0	7.257500e+01
183.352722	1.279599	city	2	1	1.155834	1.155834	0	1	0	0	CorrectCommission	0.085806	0.688068	1	0	7.255000e+01
184.632294	1.279529	mountain	7	0	0.000000	1.171836	1	0	0	0	CorrectOmission	0.018505	0.725932	0	0	7.252500e+01
185.931931	1.319753	city	5	1	1.290454	1.290454	0	1	0	0	CorrectCommission	0.480358	0.773328	0	0	7.250000e+01
187.244843	1.306066	city	2	1	1.493123	1.493123	0	1	0	0	CorrectCommission	1.332711	0.829566	0	0	7.247500e+01
188.550903	1.306068	city	10	1	1.264325	1.264325	0	1	0	0	CorrectCommission	0.370467	0.893382	0	0	7.245000e+01
189.857208	1.306541	city	3	1	1.262045	1.262045	0	1	0	0	CorrectCommission	0.360878	0.963094	0	0	7.242500e+01
191.163620	1.306274	city	8	1	1.629401	1.629401	0	1	0	0	CorrectCommission	1.905845	1.036724	0	0	7.240000e+01
192.456543	1.279564	city	9	1	1.386587	1.386587	0	1	0	0	CorrectCommission	0.884656	1.112161	0	0	7.237500e+01
193.789429	1.386222	city	7	1	0.974138	0.974138	0	1	0	0	CorrectCommission	0.849953	1.187389	0	0	7.235000e+01
195.128952	1.292814	city	1	1	0.672708	0.672708	0	1	0	0	CorrectCommission	2.117655	1.260492	0	0	7.232500e+01
196.415192	1.279661	city	9	1	0.649247	0.649247	0	1	0	0	CorrectCommission	2.216323	1.329672	0	0	7.230000e+01
197.714798	1.319559	city	1	1	1.607877	1.607877	0	1	0	0	CorrectCommission	1.815325	1.393221	0	0	7.227500e+01
199.021027	1.292906	city	8	1	1.196535	1.196535	0	1	0	0	CorrectCommission	0.085367	1.449378	0	0	7.225000e+01
200.307281	1.279601	city	4	1	0.967469	0.967469	0	1	0	0	CorrectCommission	0.877999	1.496298	0	0	7.222500e+01
201.606857	1.319559	city	9	1	0.826901	0.826901	0	1	0	0	CorrectCommission	1.469177	1.531952	0	0	7.220000e+01
202.913086	1.292886	city	3	1	0.779116	0.779116	0	1	0	0	CorrectCommission	1.670142	1.554349	0	0	7.217500e+01
204.205994	1.292935	city	4	1	0.644326	0.644326	0	1	0	0	CorrectCommission	2.237021	1.561750	0	0	7.215000e+01
205.512161	1.319382	city	5	1	1.798348	1.798348	0	1	0	0	CorrectCommission	2.616374	1.552956	0	0	7.212500e+01
206.825043	1.306384	city	6	1	2.085113	2.085113	0	1	0	0	CorrectCommission	3.822404	1.527666	0	0	7.210000e+01
208.124619	1.292764	city	7	1	1.084153	1.084153	0	1	0	0	CorrectCommission	0.387268	1.486671	0	0	7.207500e+01
209.417465	1.292949	city	4	1	0.982801	0.982801	0	1	0	0	CorrectCommission	0.813517	1.432103	0	0	7.205000e+01
210.717117	1.306359	city	3	1	0.765572	0.765572	0	1	0	0	CorrectCommission	1.727106	1.367236	0	0	7.202500e+01
211.370300	9.450085	break	0	1	0.614562	0.614562	0	0	0	0	ThoughtProbe	2.362197	1.296269	0	72	72
221.460251	1.279725	city	6	1	1.356375	1.356375	0	1	0	0	CorrectCommission	0.757596	1.223973	0	0	7.208824e+01
222.746567	1.292917	city	7	1	1.006488	1.006488	0	1	0	0	CorrectCommission	0.713899	1.155251	0	0	7.217647e+01
224.039490	1.292908	city	1	1	0.980574	0.980574	0	1	0	0	CorrectCommission	0.822883	1.094505	0	0	7.226471e+01
225.345642	1.319396	city	5	1	0.995859	0.995859	0	1	0	0	CorrectCommission	0.758602	1.045238	0	0	7.235294e+01
226.665146	1.319629	city	8	1	1.152355	1.152355	0	1	0	0	CorrectCommission	0.100436	1.009668	0	0	7.244118e+01
227.971375	1.292834	mountain	3	0	0.000000	1.267289	1	0	0	0	CorrectOmission	0.382935	0.988486	0	0	7.252941e+01
229.277588	1.319582	city	10	1	1.379272	1.379272	0	1	0	0	CorrectCommission	0.853894	0.980806	0	0	7.261765e+01
230.637146	1.399543	city	2	1	1.526915	1.526915	0	1	0	0	CorrectCommission	1.474827	0.984322	0	0	7.270588e+01
231.990128	1.306410	city	5	1	1.257408	1.257408	0	1	0	0	CorrectCommission	0.341378	0.995603	0	0	7.279412e+01
233.283020	1.279382	city	8	1	1.080529	1.080529	0	1	0	0	CorrectCommission	0.402509	1.010629	0	0	7.288235e+01
234.575882	1.306323	city	10	1	0.938105	0.938105	0	1	0	0	CorrectCommission	1.001495	1.025281	0	0	7.297059e+01
235.868805	1.279518	city	2	1	0.748821	0.748821	0	1	0	0	CorrectCommission	1.797553	1.035941	0	0	7.305882e+01
237.161713	1.306301	mountain	5	1	0.504132	0.504132	0	0	1	0	CommissionError	2.826624	1.039864	0	0	7.314706e+01
238.461349	1.292978	city	10	1	1.530214	1.530214	0	1	0	0	CorrectCommission	1.488699	1.035513	0	0	7.323529e+01
239.747559	1.279439	city	8	1	1.410368	1.410368	0	1	0	0	CorrectCommission	0.984672	1.022719	0	0	7.332353e+01
241.027054	1.279574	city	9	1	1.362732	1.362732	0	1	0	0	CorrectCommission	0.784335	1.002513	0	0	7.341176e+01
242.340027	1.346368	city	4	1	1.152600	1.152600	0	1	0	0	CorrectCommission	0.099404	0.976896	0	0	7.350000e+01
243.659683	1.292924	city	8	1	0.824645	0.824645	0	1	0	0	CorrectCommission	1.478666	0.948438	0	0	7.358824e+01
244.959167	1.306063	city	9	1	1.089026	1.089026	0	1	0	0	CorrectCommission	0.366773	0.919920	0	0	7.367647e+01
246.258667	1.292917	city	10	1	1.034783	1.034783	0	1	0	0	CorrectCommission	0.594901	0.893986	0	0	7.376471e+01
247.551575	1.292908	city	3	1	0.773085	0.773085	0	1	0	0	CorrectCommission	1.695509	0.872795	0	0	7.385294e+01
248.864563	1.333056	city	4	1	1.247814	1.247814	0	1	0	0	CorrectCommission	0.301030	0.857838	0	0	7.394118e+01
250.197525	1.332879	city	5	1	1.085650	1.085650	0	1	0	0	CorrectCommission	0.380974	0.849949	0	0	7.402941e+01
251.510437	1.292933	city	1	1	1.083754	1.083754	0	1	0	0	CorrectCommission	0.388947	0.849188	0	0	7.411765e+01
252.816589	1.319388	city	10	1	0.864914	0.864914	0	1	0	0	CorrectCommission	1.309309	0.854914	0	0	7.420588e+01
254.116104	1.279626	city	1	1	0.908517	0.908517	0	1	0	0	CorrectCommission	1.125931	0.865863	0	0	7.429412e+01
255.402420	1.293017	city	5	1	0.976957	0.976957	0	1	0	0	CorrectCommission	0.838096	0.880333	0	0	7.438235e+01
256.695343	1.292834	city	3	1	1.245838	1.245838	0	1	0	0	CorrectCommission	0.292718	0.896293	0	0	7.447059e+01
257.981598	1.279683	city	6	1	1.124436	1.124436	0	1	0	0	CorrectCommission	0.217854	0.911604	0	0	7.455882e+01
259.274475	1.306068	city	7	1	0.892816	0.892816	0	1	0	0	CorrectCommission	1.191962	0.924168	0	0	7.464706e+01
260.587372	1.319733	city	2	1	0.564083	0.564083	0	1	0	0	CorrectCommission	2.574494	0.932165	0	0	7.473529e+01
261.900269	1.306061	city	9	1	1.377785	1.377785	0	1	0	0	CorrectCommission	0.847642	0.934222	0	0	7.482353e+01
263.199890	1.293172	city	3	1	1.310535	1.310535	0	1	0	0	CorrectCommission	0.564811	0.929617	0	0	7.491176e+01
265.992371	4.291764	break	0	0	0.000000	1.375030	0	0	0	0	ThoughtProbe	0.836054	0.918284	0	75	75
268.777985	1.279461	mountain	8	0	0.000000	1.477496	1	0	0	0	CorrectOmission	1.266989	0.900784	0	0	7.504348e+01
270.057556	1.279730	city	5	1	1.524159	1.524159	0	1	0	0	CorrectCommission	1.463234	0.878255	0	0	7.508696e+01
271.343842	1.292814	city	1	1	1.421243	1.421243	0	1	0	0	CorrectCommission	1.030408	0.852237	0	0	7.513043e+01
272.643341	1.306191	city	5	1	1.350493	1.350493	0	1	0	0	CorrectCommission	0.732860	0.824430	0	0	7.517391e+01
273.956268	1.319679	mountain	1	0	0.000000	1.236333	1	0	0	0	CorrectOmission	0.252744	0.796470	0	0	7.521739e+01
275.262543	1.292858	city	6	1	1.125189	1.125189	0	1	0	0	CorrectCommission	0.214685	0.769675	0	0	7.526087e+01
276.568817	1.319670	city	10	1	1.063491	1.063491	0	1	0	0	CorrectCommission	0.474167	0.744940	0	0	7.530435e+01
277.868439	1.279575	city	2	1	1.384164	1.384164	0	1	0	0	CorrectCommission	0.874467	0.722656	0	0	7.534783e+01
279.167908	1.319397	mountain	2	0	0.000000	1.398716	1	0	0	0	CorrectOmission	0.935670	0.702715	1	0	7.539130e+01
280.467407	1.279596	city	2	1	1.312398	1.312398	0	1	0	0	CorrectCommission	0.572646	0.684727	1	0	7.543478e+01
281.760406	1.306399	city	8	1	1.330457	1.330457	0	1	0	0	CorrectCommission	0.648597	0.668117	1	0	7.547826e+01
283.059967	1.292728	city	2	1	1.422759	1.422759	0	1	0	0	CorrectCommission	1.036785	0.652334	1	0	7.552174e+01
284.346130	1.279586	city	10	1	1.318018	1.318018	0	1	0	0	CorrectCommission	0.596282	0.637017	1	0	7.556522e+01
285.645721	1.319599	city	6	1	1.499234	1.499234	0	1	0	0	CorrectCommission	1.358411	0.622149	1	0	7.560870e+01
286.952057	1.293049	city	10	1	1.135729	1.135729	0	1	0	0	CorrectCommission	0.170359	0.608040	1	0	7.565217e+01
288.238373	1.279582	city	1	1	1.188600	1.188600	0	1	0	0	CorrectCommission	0.051999	0.595425	1	0	7.569565e+01
289.517944	1.279561	city	8	1	1.190475	1.190475	0	1	0	0	CorrectCommission	0.059881	0.585331	1	0	7.573913e+01
290.804199	1.292945	city	4	1	1.263992	1.263992	0	1	0	0	CorrectCommission	0.369069	0.579018	1	0	7.578261e+01
292.090332	1.279373	city	7	1	1.550995	1.550995	0	1	0	0	CorrectCommission	1.576097	0.577828	1	0	7.582609e+01
293.369843	1.279596	city	3	0	0.000000	1.406719	0	0	0	1	OmissionError	0.969326	0.583074	1	0	7.586957e+01
294.649445	1.279659	city	4	1	1.139079	1.139079	0	1	0	0	CorrectCommission	0.156270	0.595881	1	0	7.591304e+01
295.949127	1.319652	city	9	1	1.055989	1.055989	0	1	0	0	CorrectCommission	0.505714	0.616941	1	0	7.595652e+01
297.248627	1.279397	city	7	1	1.197636	1.197636	0	1	0	0	CorrectCommission	0.089998	0.646311	1	0	76
298.548218	1.319751	city	9	1	1.216211	1.216211	0	1	0	0	CorrectCommission	0.168119	0.683298	1	0	7.604348e+01
299.861115	1.306061	city	10	1	1.176934	1.176934	0	1	0	0	CorrectCommission	0.002933	0.726452	0	0	7.608696e+01
301.154022	1.279775	city	4	1	1.338520	1.338520	0	1	0	0	CorrectCommission	0.682508	0.773681	0	0	7.613043e+01
302.440369	1.292883	city	9	1	1.408066	1.408066	0	1	0	0	CorrectCommission	0.974990	0.822518	0	0	7.617391e+01
303.753265	1.332927	city	2	1	1.292985	1.292985	0	1	0	0	CorrectCommission	0.491001	0.870539	0	0	7.621739e+01
305.059418	1.279371	city	8	1	1.795901	1.795901	0	1	0	0	CorrectCommission	2.606084	0.915812	0	0	7.626087e+01
306.345581	1.292934	mountain	1	0	0.000000	1.495938	1	0	0	0	CorrectOmission	1.344547	0.957206	0	0	7.630435e+01
307.651886	1.319725	city	7	1	0.982716	0.982716	0	1	0	0	CorrectCommission	0.813876	0.994708	0	0	7.634783e+01
308.964874	1.306251	city	2	1	0.845857	0.845857	0	1	0	0	CorrectCommission	1.389453	1.029358	0	0	7.639130e+01
310.277802	1.319550	city	1	1	0.730317	0.730317	0	1	0	0	CorrectCommission	1.875374	1.062978	0	0	7.643478e+01
311.584015	1.292914	city	3	1	1.258194	1.258194	0	1	0	0	CorrectCommission	0.344686	1.097720	0	0	7.647826e+01
312.876923	1.292868	city	1	1	1.414424	1.414424	0	1	0	0	CorrectCommission	1.001729	1.135500	0	0	7.652174e+01
314.176483	1.306275	city	5	1	1.259296	1.259296	0	1	0	0	CorrectCommission	0.349321	1.177312	0	0	7.656522e+01
315.469391	1.279566	city	2	1	1.328336	1.328336	0	1	0	0	CorrectCommission	0.639677	1.222858	0	0	7.660870e+01
316.782288	1.346206	city	3	1	1.236394	1.236394	0	1	0	0	CorrectCommission	0.253001	1.270271	0	0	7.665217e+01
318.121826	1.332886	city	8	1	0.994434	0.994434	0	1	0	0	CorrectCommission	0.764593	1.316273	0	0	7.669565e+01
319.428009	1.279481	city	6	1	0.768407	0.768407	0	1	0	0	CorrectCommission	1.715181	1.356572	0	0	7.673913e+01
320.734222	1.332937	city	7	1	0.663659	0.663659	0	1	0	0	CorrectCommission	2.155712	1.386536	0	0	7.678261e+01
322.067139	1.332855	city	9	1	0.490128	0.490128	0	1	0	0	CorrectCommission	2.885520	1.402011	0	0	7.682609e+01
323.386719	1.306316	city	4	1	1.716179	1.716179	0	1	0	0	CorrectCommission	2.270802	1.400063	0	0	7.686957e+01
324.713013	1.346263	city	3	1	1.849630	1.849630	0	1	0	0	CorrectCommission	2.832049	1.379492	0	0	7.691304e+01
326.032501	1.292734	city	9	1	1.640234	1.640234	0	1	0	0	CorrectCommission	1.951404	1.340996	0	0	7.695652e+01
329.244781	5.131830	break	0	0	0.000000	1.448443	0	0	0	0	ThoughtProbe	1.144804	1.287076	0	77	77
332.463776	1.306190	city	4	1	1.249271	1.249271	0	1	0	0	CorrectCommission	0.307158	1.221550	0	0	7.689130e+01
333.756622	1.279458	city	1	1	1.017729	1.017729	0	1	0	0	CorrectCommission	0.666624	1.148914	0	0	7.678261e+01
335.056213	1.319730	city	9	1	0.979729	0.979729	0	1	0	0	CorrectCommission	0.826436	1.073657	0	0	7.667391e+01
336.369110	1.306058	city	7	1	1.108783	1.108783	0	1	0	0	CorrectCommission	0.283684	0.999745	0	0	7.656522e+01
337.661926	1.279609	city	2	1	1.018381	1.018381	0	1	0	0	CorrectCommission	0.663880	0.930211	0	0	7.645652e+01
338.968231	1.332952	city	7	1	0.933241	0.933241	0	1	0	0	CorrectCommission	1.021949	0.867055	0	0	7.634783e+01
340.274506	1.279615	city	6	1	1.570212	1.570212	0	1	0	0	CorrectCommission	1.656917	0.811336	0	0	7.623913e+01
341.554047	1.279508	city	1	1	1.071343	1.071343	0	1	0	0	CorrectCommission	0.441144	0.763365	0	0	7.613043e+01
342.833679	1.279713	city	6	1	1.328914	1.328914	0	1	0	0	CorrectCommission	0.642106	0.723034	0	0	7.602174e+01
344.139954	1.332867	city	9	1	1.257951	1.257951	0	1	0	0	CorrectCommission	0.343663	0.690050	1	0	7.591304e+01
345.479492	1.346220	city	4	1	1.088347	1.088347	0	1	0	0	CorrectCommission	0.369629	0.664116	1	0	7.580435e+01
346.792419	1.279586	city	3	1	0.964901	0.964901	0	1	0	0	CorrectCommission	0.888797	0.645034	1	0	7.569565e+01
348.071991	1.279571	city	1	1	0.974774	0.974774	0	1	0	0	CorrectCommission	0.847276	0.632674	1	0	7.558696e+01
349.364807	1.306088	city	8	1	0.991682	0.991682	0	1	0	0	CorrectCommission	0.776168	0.626893	1	0	7.547826e+01
350.671051	1.306387	mountain	3	0	0.000000	1.168027	1	0	0	0	CorrectOmission	0.034527	0.627402	1	0	7.536957e+01
351.990662	1.332858	city	4	1	1.291394	1.291394	0	1	0	0	CorrectCommission	0.484311	0.633623	1	0	7.526087e+01
353.303528	1.292845	city	3	1	1.149370	1.149370	0	1	0	0	CorrectCommission	0.112990	0.644655	1	0	7.515217e+01
354.609833	1.319743	mountain	5	0	0.000000	1.200063	1	0	0	0	CorrectOmission	0.100205	0.659354	1	0	7.504348e+01
355.909363	1.279345	mountain	2	0	0.000000	1.338827	1	0	0	0	CorrectOmission	0.683796	0.676433	1	0	7.493478e+01
357.188904	1.279758	city	7	1	1.461017	1.461017	0	1	0	0	CorrectCommission	1.197684	0.694696	1	0	7.482609e+01
358.468536	1.279470	city	10	1	1.461989	1.461989	0	1	0	0	CorrectCommission	1.201769	0.713297	1	0	7.471739e+01
359.748108	1.279707	mountain	8	0	0.000000	1.487845	1	0	0	0	CorrectOmission	1.310514	0.731909	0	0	7.460870e+01
361.027679	1.279384	city	8	1	1.467353	1.467353	0	1	0	0	CorrectCommission	1.224329	0.750810	0	0	7.450000e+01
362.327148	1.319563	city	5	1	1.329275	1.329275	0	1	0	0	CorrectCommission	0.643625	0.770745	0	0	7.439130e+01
363.626770	1.279716	city	8	1	1.247043	1.247043	0	1	0	0	CorrectCommission	0.297785	0.792725	0	0	7.428261e+01
364.933014	1.332757	city	6	1	1.060770	1.060770	0	1	0	0	CorrectCommission	0.485609	0.817658	0	0	7.417391e+01
366.245941	1.293119	city	4	1	1.084500	1.084500	0	1	0	0	CorrectCommission	0.385808	0.845985	0	0	7.406522e+01
367.545532	1.306027	city	3	1	1.056721	1.056721	0	1	0	0	CorrectCommission	0.502636	0.877412	0	0	7.395652e+01
368.845001	1.292945	city	1	1	1.324470	1.324470	0	1	0	0	CorrectCommission	0.623417	0.910734	0	0	7.384783e+01
370.131348	1.279706	city	10	1	1.309763	1.309763	0	1	0	0	CorrectCommission	0.561566	0.943924	0	0	7.373913e+01
371.417664	1.292937	city	2	1	1.378595	1.378595	0	1	0	0	CorrectCommission	0.851047	0.974357	0	0	7.363043e+01
372.723907	1.319534	city	7	1	1.678665	1.678665	0	1	0	0	CorrectCommission	2.113033	0.999172	0	0	7.352174e+01
374.050049	1.332799	city	3	1	1.584087	1.584087	0	1	0	0	CorrectCommission	1.715273	1.015687	0	0	7.341304e+01
375.382874	1.332829	city	6	1	1.660855	1.660855	0	1	0	0	CorrectCommission	2.038128	1.021844	0	0	7.330435e+01
376.749146	1.399731	city	9	1	1.264871	1.264871	0	1	0	0	CorrectCommission	0.372766	1.016479	0	0	7.319565e+01
378.102051	1.306046	city	2	1	0.939674	0.939674	0	1	0	0	CorrectCommission	0.994893	0.999533	0	0	7.308696e+01
379.401611	1.293086	city	1	1	1.714757	1.714757	0	1	0	0	CorrectCommission	2.264820	0.971928	0	0	7.297826e+01
380.714600	1.332899	city	6	1	1.239714	1.239714	0	1	0	0	CorrectCommission	0.266964	0.935436	0	0	7.286957e+01
382.054138	1.346194	city	3	1	1.008357	1.008357	0	1	0	0	CorrectCommission	0.706039	0.892505	0	0	7.276087e+01
383.393707	1.332901	city	1	1	0.956491	0.956491	0	1	0	0	CorrectCommission	0.924168	0.845875	0	0	7.265217e+01
384.699890	1.279510	city	4	1	1.124068	1.124068	0	1	0	0	CorrectCommission	0.219400	0.798320	0	0	7.254348e+01
385.986084	1.292866	city	6	1	0.888400	0.888400	0	1	0	0	CorrectCommission	1.210536	0.752454	0	0	7.243478e+01
387.279175	1.293276	city	10	1	1.240176	1.240176	0	1	0	0	CorrectCommission	0.268908	0.710540	1	0	7.232609e+01
388.565399	1.279217	city	9	1	1.411231	1.411231	0	1	0	0	CorrectCommission	0.988302	0.674432	1	0	7.221739e+01
389.844849	1.279684	city	7	1	1.238323	1.238323	0	1	0	0	CorrectCommission	0.261115	0.645456	1	0	7.210870e+01
393.403656	5.837938	break	0	0	0.000000	1.304820	0	0	0	0	ThoughtProbe	0.540776	0.624441	1	72	72
396.982422	1.319568	city	8	1	1.351209	1.351209	0	1	0	0	CorrectCommission	0.735869	0.611651	1	0	7.185294e+01
398.295380	1.306375	city	1	1	1.117976	1.117976	0	1	0	0	CorrectCommission	0.245020	0.606808	1	0	7.170588e+01
399.588379	1.279585	city	8	1	1.124922	1.124922	0	1	0	0	CorrectCommission	0.215811	0.609068	1	0	7.155882e+01
400.881317	1.306284	city	10	1	1.012448	1.012448	0	1	0	0	CorrectCommission	0.688835	0.617053	1	0	7.141176e+01
402.180817	1.292720	city	7	1	1.034971	1.034971	0	1	0	0	CorrectCommission	0.594112	0.628955	1	0	7.126471e+01
403.473694	1.293062	city	10	1	1.260253	1.260253	0	1	0	0	CorrectCommission	0.353345	0.642704	1	0	7.111765e+01
404.786682	1.332882	city	8	1	1.187015	1.187015	0	1	0	0	CorrectCommission	0.045332	0.656225	1	0	7.097059e+01
406.092896	1.279536	mountain	1	1	1.030546	1.030546	0	0	1	0	CommissionError	0.612718	0.667708	1	0	7.082353e+01
407.379150	1.292980	city	10	1	1.728713	1.728713	0	1	0	0	CorrectCommission	2.323513	0.675877	1	0	7.067647e+01
408.665405	1.279575	city	3	1	1.469894	1.469894	0	1	0	0	CorrectCommission	1.235017	0.680197	1	0	7.052941e+01
409.965027	1.319620	city	7	1	1.342000	1.342000	0	1	0	0	CorrectCommission	0.697142	0.681117	1	0	7.038235e+01
411.271179	1.292689	city	4	1	1.265201	1.265201	0	1	0	0	CorrectCommission	0.374154	0.679885	1	0	7.023529e+01
412.557312	1.279604	city	3	1	0.919899	0.919899	0	1	0	0	CorrectCommission	1.078061	0.678376	1	0	7.008824e+01
413.850220	1.306202	city	9	1	1.163961	1.163961	0	1	0	0	CorrectCommission	0.051626	0.678807	1	0	6.994118e+01
415.149780	1.292907	city	8	1	1.199716	1.199716	0	1	0	0	CorrectCommission	0.098745	0.683385	1	0	6.979412e+01
416.449432	1.306384	city	10	1	0.946708	0.946708	0	1	0	0	CorrectCommission	0.965314	0.693857	1	0	6.964706e+01
417.748993	1.292747	city	2	1	1.266534	1.266534	0	1	0	0	CorrectCommission	0.379758	0.711271	1	0	6.950000e+01
419.055237	1.319736	city	1	1	1.168086	1.168086	0	1	0	0	CorrectCommission	0.034278	0.735758	0	0	6.935294e+01
420.354797	1.279429	city	5	1	1.193741	1.193741	0	1	0	0	CorrectCommission	0.073616	0.766556	0	0	6.920588e+01
421.647644	1.306247	city	1	1	1.087282	1.087282	0	1	0	0	CorrectCommission	0.374107	0.802074	0	0	6.905882e+01
422.947235	1.292949	city	2	1	1.771132	1.771132	0	1	0	0	CorrectCommission	2.501912	0.840162	0	0	6.891176e+01
424.253479	1.319519	mountain	9	0	0.000000	1.505154	1	0	0	0	CorrectOmission	1.383306	0.878338	0	0	6.876471e+01
425.559753	1.293045	city	10	1	0.978120	0.978120	0	1	0	0	CorrectCommission	0.833204	0.914148	0	0	6.861765e+01
426.852753	1.292932	city	8	1	0.878803	0.878803	0	1	0	0	CorrectCommission	1.250897	0.945346	0	0	6.847059e+01
428.152313	1.306176	city	1	1	1.137709	1.137709	0	1	0	0	CorrectCommission	0.162030	0.970069	0	0	6.832353e+01
429.458527	1.306301	city	7	0	0.000000	1.000081	0	0	0	1	OmissionError	0.740843	0.987012	0	0	6.817647e+01
430.784698	1.346035	city	6	1	0.828060	0.828060	0	1	0	0	CorrectCommission	1.464300	0.995419	0	0	6.802941e+01
432.097534	1.279606	city	10	1	0.983788	0.983788	0	1	0	0	CorrectCommission	0.809367	0.995202	0	0	6.788235e+01
433.390472	1.306279	city	5	1	1.450038	1.450038	0	1	0	0	CorrectCommission	1.151509	0.986978	0	0	6.773529e+01
434.703369	1.319497	city	3	1	1.833249	1.833249	0	1	0	0	CorrectCommission	2.763156	0.972009	0	0	6.758824e+01
436.022980	1.319753	city	2	1	1.494148	1.494148	0	1	0	0	CorrectCommission	1.337021	0.952033	0	0	6.744118e+01
437.349304	1.332877	city	1	1	1.047116	1.047116	0	1	0	0	CorrectCommission	0.543033	0.929218	0	0	6.729412e+01
438.662109	1.292756	city	5	1	1.189810	1.189810	0	1	0	0	CorrectCommission	0.057087	0.905789	0	0	6.714706e+01
441.254608	3.892226	break	0	0	0.000000	1.289651	0	0	0	0	ThoughtProbe	0.476981	0.883760	0	67	67
443.893799	1.386181	city	4	1	1.208526	1.208526	0	1	0	0	CorrectCommission	0.135800	0.864588	0	0	6.693478e+01
445.233368	1.292932	city	1	1	0.808323	0.808323	0	1	0	0	CorrectCommission	1.547308	0.849086	0	0	6.686957e+01
446.519623	1.279582	city	9	1	1.194077	1.194077	0	1	0	0	CorrectCommission	0.075030	0.837270	0	0	6.680435e+01
447.812531	1.306239	mountain	2	0	0.000000	1.405723	1	0	0	0	CorrectOmission	0.965136	0.828523	0	0	6.673913e+01
449.105408	1.279487	city	4	1	1.335400	1.335400	0	1	0	0	CorrectCommission	0.669385	0.821706	0	0	6.667391e+01
450.404968	1.319626	city	10	1	0.875247	0.875247	0	1	0	0	CorrectCommission	1.265851	0.815521	0	0	6.660870e+01
451.711182	1.292806	mountain	1	0	0.000000	0.809827	1	0	0	0	CorrectOmission	1.540983	0.808742	0	0	6.654348e+01
453.010681	1.306205	city	3	1	0.996404	0.996404	0	1	0	0	CorrectCommission	0.756307	0.800485	0	0	6.647826e+01
454.336884	1.346206	city	7	1	1.292243	1.292243	0	1	0	0	CorrectCommission	0.487883	0.790339	0	0	6.641304e+01
455.663208	1.306418	city	10	1	0.995680	0.995680	0	1	0	0	CorrectCommission	0.759354	0.778428	0	0	6.634783e+01
456.956085	1.279393	city	4	1	1.567990	1.567990	0	1	0	0	CorrectCommission	1.647571	0.765309	0	0	6.628261e+01
458.275635	1.359696	city	3	1	1.207801	1.207801	0	1	0	0	CorrectCommission	0.132749	0.751808	0	0	6.621739e+01
459.628540	1.346081	city	9	1	1.101831	1.101831	0	1	0	0	CorrectCommission	0.312920	0.738888	0	0	6.615217e+01
460.941437	1.279704	city	1	1	1.250700	1.250700	0	1	0	0	CorrectCommission	0.313167	0.727371	0	0	6.608696e+01
462.227753	1.292969	city	9	1	1.511033	1.511033	0	1	0	0	CorrectCommission	1.408033	0.717813	1	0	6.602174e+01
463.513947	1.279414	city	8	0	0.000000	1.260070	0	0	0	1	OmissionError	0.352573	0.710415	1	0	6.595652e+01
464.820068	1.332798	city	9	1	0.998164	0.998164	0	1	0	0	CorrectCommission	0.748908	0.705082	1	0	6.589130e+01
466.126373	1.279811	mountain	8	0	0.000000	1.225668	1	0	0	0	CorrectOmission	0.207893	0.701389	1	0	6.582609e+01
467.419403	1.306238	city	2	1	1.453709	1.453709	0	1	0	0	CorrectCommission	1.166949	0.698830	1	0	6.576087e+01
468.745544	1.346065	city	8	1	1.193411	1.193411	0	1	0	0	CorrectCommission	0.072230	0.696865	1	0	6.569565e+01
470.071686	1.306253	city	1	1	1.472904	1.472904	0	1	0	0	CorrectCommission	1.247676	0.695129	1	0	6.563043e+01
471.364624	1.279600	city	10	1	1.518714	1.518714	0	1	0	0	CorrectCommission	1.440335	0.693423	1	0	6.556522e+01
472.657623	1.306393	city	8	1	1.417555	1.417555	0	1	0	0	CorrectCommission	1.014899	0.691792	1	0	6.550000e+01
473.950592	1.279574	city	1	1	1.182643	1.182643	0	1	0	0	CorrectCommission	0.026943	0.690392	1	0	6.543478e+01
475.230103	1.279406	city	7	1	1.296783	1.296783	0	1	0	0	CorrectCommission	0.506976	0.689434	1	0	6.536957e+01
476.522980	1.306359	city	3	1	1.261460	1.261460	0	1	0	0	CorrectCommission	0.358419	0.688977	1	0	6.530435e+01
477.855865	1.359429	city	4	1	1.248113	1.248113	0	1	0	0	CorrectCommission	0.302286	0.688899	1	0	6.523913e+01
479.208771	1.346369	city	7	1	1.310587	1.310587	0	1	0	0	CorrectCommission	0.565029	0.688851	1	0	6.517391e+01
480.541718	1.319553	city	8	1	0.907842	0.907842	0	1	0	0	CorrectCommission	1.128766	0.688306	1	0	6.510870e+01
481.867981	1.332931	city	6	1	0.995456	0.995456	0	1	0	0	CorrectCommission	0.760295	0.686711	1	0	6.504348e+01
483.180878	1.292895	city	4	1	1.461174	1.461174	0	1	0	0	CorrectCommission	1.198343	0.683667	1	0	6.497826e+01
484.500458	1.346241	mountain	2	0	0.000000	1.319389	1	0	0	0	CorrectOmission	0.602049	0.679091	1	0	6.491304e+01
485.826691	1.306237	city	5	1	0.998680	0.998680	0	1	0	0	CorrectCommission	0.746738	0.673353	1	0	6.484783e+01
487.119598	1.279556	city	8	1	0.927622	0.927622	0	1	0	0	CorrectCommission	1.045581	0.667323	1	0	6.478261e+01
488.405823	1.292930	city	7	1	1.049227	1.049227	0	1	0	0	CorrectCommission	0.534155	0.662282	1	0	6.471739e+01
489.712036	1.319460	city	2	1	1.060227	1.060227	0	1	0	0	CorrectCommission	0.487893	0.659856	1	0	6.465217e+01
491.031586	1.319636	city	5	1	1.170205	1.170205	0	1	0	0	CorrectCommission	0.025364	0.661749	1	0	6.458696e+01
492.337799	1.292784	city	10	1	0.923736	0.923736	0	1	0	0	CorrectCommission	1.061925	0.669602	1	0	6.452174e+01
493.637360	1.306358	city	9	1	1.149031	1.149031	0	1	0	0	CorrectCommission	0.114415	0.684722	1	0	6.445652e+01
494.936981	1.292902	city	5	1	1.149186	1.149186	0	1	0	0	CorrectCommission	0.113763	0.708027	1	0	6.439130e+01
496.243164	1.319437	city	10	1	0.957196	0.957196	0	1	0	0	CorrectCommission	0.921205	0.739859	0	0	6.432609e+01
497.549408	1.293087	city	1	1	0.835953	0.835953	0	1	0	0	CorrectCommission	1.431108	0.779965	0	0	6.426087e+01
498.835754	1.279613	city	4	1	1.299375	1.299375	0	1	0	0	CorrectCommission	0.517878	0.827514	0	0	6.419565e+01
500.128693	1.306222	city	7	1	1.247386	1.247386	0	1	0	0	CorrectCommission	0.299230	0.881164	0	0	6.413043e+01
501.421570	1.279536	city	2	1	1.092999	1.092999	0	1	0	0	CorrectCommission	0.350066	0.939138	0	0	6.406522e+01
504.640472	5.158256	break	0	0	0.000000	0.938611	0	0	0	0	ThoughtProbe	0.999363	0.999363	0	64	64
