onset	duration	trial_type	image_type	Press	ReactionTime	ReactionTime_Interpolated	CorrectOmission	CorrectCommission	CommissionError	OmissionError	response_type	nonsmoothVarianceTimeCourse	VarianceTimeCourse	In_the_Zone	ThoughtProbe	ThoughtProbe_Interpolated
0.652935	1.279520	mountain	7	0	0.000000	1.654416	1	0	0	0	CorrectOmission	1.834739	1.834739	0	0	50
1.932525	1.279659	city	7	1	1.527412	1.527412	0	1	0	0	CorrectCommission	1.209401	1.642986	0	0	50
3.212136	1.279562	city	4	1	1.400407	1.400407	0	1	0	0	CorrectCommission	0.584064	1.457465	0	0	50
4.491721	1.279608	city	3	1	1.315812	1.315812	0	1	0	0	CorrectCommission	0.167538	1.283814	0	0	50
5.771239	1.279429	city	2	1	1.182191	1.182191	0	1	0	0	CorrectCommission	0.490376	1.126591	0	0	50
7.050804	1.279701	city	3	1	1.128059	1.128059	0	1	0	0	CorrectCommission	0.756906	0.988990	0	0	50
8.330450	1.279592	city	6	1	1.206304	1.206304	0	1	0	0	CorrectCommission	0.371651	0.872785	0	0	50
9.609962	1.279430	city	1	1	1.124545	1.124545	0	1	0	0	CorrectCommission	0.774211	0.778469	0	0	50
10.889544	1.279736	city	2	1	1.187972	1.187972	0	1	0	0	CorrectCommission	0.461909	0.705483	1	0	50
12.169147	1.279469	city	6	1	1.142890	1.142890	0	1	0	0	CorrectCommission	0.683881	0.652601	1	0	50
13.448652	1.279542	city	9	1	1.142629	1.142629	0	1	0	0	CorrectCommission	0.685167	0.618171	1	0	50
14.734862	1.292878	city	1	1	1.153557	1.153557	0	1	0	0	CorrectCommission	0.631363	0.600348	1	0	50
16.021181	1.279759	mountain	5	0	0.000000	1.294846	1	0	0	0	CorrectOmission	0.064307	0.597168	1	0	50
17.300852	1.279583	city	7	1	1.408668	1.408668	0	1	0	0	CorrectCommission	0.624740	0.606555	1	0	50
18.580431	1.279576	city	1	1	1.337196	1.337196	0	1	0	0	CorrectCommission	0.272831	0.626154	1	0	50
19.859928	1.279419	city	6	1	1.354782	1.354782	0	1	0	0	CorrectCommission	0.359416	0.653288	1	0	50
21.139496	1.279715	city	5	1	1.341446	1.341446	0	1	0	0	CorrectCommission	0.293757	0.684906	1	0	50
22.419163	1.279620	city	6	1	1.287322	1.287322	0	1	0	0	CorrectCommission	0.027263	0.717687	1	0	50
23.705416	1.292885	city	2	1	1.101237	1.101237	0	1	0	0	CorrectCommission	0.888972	0.748218	0	0	50
24.991646	1.279576	city	6	1	1.021159	1.021159	0	1	0	0	CorrectCommission	1.283257	0.773330	0	0	50
26.271212	1.279554	city	8	1	0.913915	0.913915	0	1	0	0	CorrectCommission	1.811295	0.790467	0	0	50
27.550739	1.279501	mountain	9	1	0.876105	0.876105	0	0	1	0	CommissionError	1.997462	0.797995	0	0	50
28.830326	1.279676	city	8	1	1.023532	1.023532	0	1	0	0	CorrectCommission	1.271568	0.795420	0	0	50
30.109964	1.279598	city	7	1	1.286681	1.286681	0	1	0	0	CorrectCommission	0.024104	0.783475	0	0	50
31.389551	1.279578	city	6	1	1.123605	1.123605	0	1	0	0	CorrectCommission	0.778836	0.763945	0	0	50
32.669044	1.279405	city	10	1	1.129657	1.129657	0	1	0	0	CorrectCommission	0.749038	0.739348	0	0	50
33.948620	1.279750	city	7	1	1.458790	1.458790	0	1	0	0	CorrectCommission	0.871528	0.712608	1	0	50
35.228287	1.279582	city	8	1	1.284969	1.284969	0	1	0	0	CorrectCommission	0.015677	0.686658	1	0	50
36.507866	1.279574	city	3	1	1.396396	1.396396	0	1	0	0	CorrectCommission	0.564316	0.664144	1	0	50
37.787376	1.279447	city	2	1	1.415992	1.415992	0	1	0	0	CorrectCommission	0.660799	0.647122	1	0	50
39.066959	1.279720	city	7	1	1.287820	1.287820	0	1	0	0	CorrectCommission	0.029714	0.636976	1	0	50
40.346596	1.279551	city	9	1	1.249700	1.249700	0	1	0	0	CorrectCommission	0.157977	0.634382	1	0	50
41.626171	1.279604	city	7	1	1.603797	1.603797	0	1	0	0	CorrectCommission	1.585504	0.639328	1	0	50
42.905720	1.279489	city	8	1	1.132315	1.132315	0	1	0	0	CorrectCommission	0.735953	0.651205	1	0	50
44.191868	1.292806	city	7	1	1.271228	1.271228	0	1	0	0	CorrectCommission	0.051980	0.668982	1	0	50
45.478077	1.279615	city	5	1	1.409775	1.409775	0	1	0	0	CorrectCommission	0.630190	0.691264	1	0	50
46.757706	1.279645	city	4	1	1.497627	1.497627	0	1	0	0	CorrectCommission	1.062748	0.716359	1	0	50
48.037281	1.279499	city	3	1	1.291716	1.291716	0	1	0	0	CorrectCommission	0.048898	0.742387	0	0	50
49.330147	1.306236	city	10	1	1.043091	1.043091	0	1	0	0	CorrectCommission	1.175265	0.767404	0	0	50
49.983265	11.756272	break	0	0	0.000000	1.099206	0	0	0	0	ThoughtProbe	0.898972	0.789481	0	50	50
62.379341	1.279610	city	6	0	0.000000	1.232846	0	0	0	1	OmissionError	0.240965	0.806924	0	0	4.950000e+01
63.665600	1.292904	city	10	1	1.216797	1.216797	0	1	0	0	CorrectCommission	0.319987	0.818474	0	0	49
64.958488	1.292869	city	3	1	0.823845	0.823845	0	1	0	0	CorrectCommission	2.254780	0.823426	0	0	4.850000e+01
66.244728	1.279621	mountain	1	1	0.866489	0.866489	0	0	1	0	CommissionError	2.044812	0.821743	0	0	4.800000e+01
67.530983	1.292884	city	6	1	1.030216	1.030216	0	1	0	0	CorrectCommission	1.238658	0.814143	0	0	4.750000e+01
68.817169	1.279484	city	4	1	1.240644	1.240644	0	1	0	0	CorrectCommission	0.202568	0.801987	0	0	47
70.096672	1.279530	mountain	3	0	0.000000	1.266184	1	0	0	0	CorrectOmission	0.076815	0.787020	0	0	4.650000e+01
71.376297	1.279723	city	9	1	1.193790	1.193790	0	1	0	0	CorrectCommission	0.433263	0.771077	0	0	46
72.662613	1.292907	city	3	1	1.110415	1.110415	0	1	0	0	CorrectCommission	0.843779	0.755797	0	0	4.550000e+01
73.955528	1.292926	city	5	1	1.115153	1.115153	0	1	0	0	CorrectCommission	0.820455	0.742375	0	0	45
75.241776	1.279562	city	10	1	1.135280	1.135280	0	1	0	0	CorrectCommission	0.721352	0.731431	0	0	4.450000e+01
76.521286	1.279460	city	6	1	1.283928	1.283928	0	1	0	0	CorrectCommission	0.010554	0.722970	0	0	4.400000e+01
77.800804	1.279571	mountain	4	0	0.000000	1.168050	1	0	0	0	CorrectOmission	0.560000	0.716510	1	0	4.350000e+01
79.093773	1.306366	city	5	1	1.158873	1.158873	0	1	0	0	CorrectCommission	0.605189	0.711266	1	0	43
80.386749	1.279597	city	4	1	1.627622	1.627622	0	1	0	0	CorrectCommission	1.702811	0.706415	1	0	4.250000e+01
81.686256	1.319407	city	2	1	1.562110	1.562110	0	1	0	0	CorrectCommission	1.380245	0.701325	1	0	42
82.985825	1.279740	city	5	1	1.125126	1.125126	0	1	0	0	CorrectCommission	0.771348	0.695772	1	0	4.150000e+01
84.265488	1.279576	city	8	1	1.292179	1.292179	0	1	0	0	CorrectCommission	0.051179	0.689959	1	0	41
85.545052	1.279566	city	5	1	1.231712	1.231712	0	1	0	0	CorrectCommission	0.246548	0.684465	1	0	4.050000e+01
86.824547	1.279419	city	7	1	1.363602	1.363602	0	1	0	0	CorrectCommission	0.402846	0.680134	1	0	40
88.104095	1.279671	city	1	1	1.604577	1.604577	0	1	0	0	CorrectCommission	1.589342	0.677798	1	0	3.950000e+01
89.383751	1.279647	city	4	1	1.400675	1.400675	0	1	0	0	CorrectCommission	0.585383	0.678069	1	0	39
90.663368	1.279592	city	1	1	1.194997	1.194997	0	1	0	0	CorrectCommission	0.427324	0.681189	1	0	3.850000e+01
91.962914	1.319489	mountain	4	0	0.000000	1.261103	1	0	0	0	CorrectOmission	0.101834	0.686821	1	0	38
93.262489	1.279666	city	6	1	1.403673	1.403673	0	1	0	0	CorrectCommission	0.600143	0.694066	1	0	3.750000e+01
94.542107	1.279569	city	5	1	1.427386	1.427386	0	1	0	0	CorrectCommission	0.716901	0.701481	1	0	37
95.828346	1.292916	city	3	1	1.351061	1.351061	0	1	0	0	CorrectCommission	0.341096	0.707344	1	0	3.650000e+01
97.121246	1.292886	city	5	1	1.466373	1.466373	0	1	0	0	CorrectCommission	0.908863	0.709958	1	0	36
98.407494	1.279601	city	10	1	1.183114	1.183114	0	1	0	0	CorrectCommission	0.485830	0.707969	1	0	3.550000e+01
99.687080	1.279577	city	1	1	1.676793	1.676793	0	1	0	0	CorrectCommission	1.944917	0.700721	1	0	35
100.966660	1.279582	city	4	1	1.666525	1.666525	0	1	0	0	CorrectCommission	1.894360	0.688423	1	0	3.450000e+01
102.246223	1.279549	city	5	1	1.444157	1.444157	0	1	0	0	CorrectCommission	0.799476	0.672267	1	0	34
103.525711	1.279418	city	9	1	1.303418	1.303418	0	1	0	0	CorrectCommission	0.106513	0.654276	1	0	3.350000e+01
104.805305	1.279771	city	7	1	1.347842	1.347842	0	1	0	0	CorrectCommission	0.325247	0.636990	1	0	33
106.084915	1.279448	city	5	1	1.307017	1.307017	0	1	0	0	CorrectCommission	0.124235	0.622987	1	0	3.250000e+01
107.364426	1.279579	city	10	1	1.255234	1.255234	0	1	0	0	CorrectCommission	0.130728	0.614474	1	0	32
108.657387	1.306340	city	1	1	1.323568	1.323568	0	1	0	0	CorrectCommission	0.205731	0.612846	1	0	3.150000e+01
109.950356	1.279591	city	8	1	1.236405	1.236405	0	1	0	0	CorrectCommission	0.223440	0.618464	1	0	31
111.229942	1.279590	city	6	1	0.965337	0.965337	0	1	0	0	CorrectCommission	1.558110	0.630575	1	0	3.050000e+01
112.509529	1.279582	city	5	1	1.231083	1.231083	0	1	0	0	CorrectCommission	0.249646	0.647381	1	0	30
113.789108	1.279573	city	4	1	1.303033	1.303033	0	1	0	0	CorrectCommission	0.104619	0.666382	1	0	2.950000e+01
115.068672	1.279561	city	10	1	1.238360	1.238360	0	1	0	0	CorrectCommission	0.213815	0.684716	1	0	29
116.348160	1.279418	city	7	1	1.296769	1.296769	0	1	0	0	CorrectCommission	0.073778	0.699630	1	0	2.850000e+01
117.634422	1.293095	city	1	1	1.948100	1.948100	0	1	0	0	CorrectCommission	3.280762	0.708918	1	0	2.800000e+01
118.920677	1.279418	city	10	0	0.000000	1.575484	0	0	0	1	OmissionError	1.446097	0.711180	1	0	2.750000e+01
119.560387	8.530646	break	0	1	1.076406	1.076406	0	0	0	0	ThoughtProbe	1.011235	0.706147	1	27	27
128.730759	1.279458	city	5	1	1.348349	1.348349	0	1	0	0	CorrectCommission	0.327746	0.694512	1	0	2.671739e+01
130.043594	1.346207	city	3	1	1.372293	1.372293	0	1	0	0	CorrectCommission	0.445637	0.677775	1	0	2.643478e+01
131.363235	1.293080	city	8	1	1.340853	1.340853	0	1	0	0	CorrectCommission	0.290834	0.657947	1	0	2.615217e+01
132.656143	1.292729	mountain	5	0	0.000000	1.323033	1	0	0	0	CorrectOmission	0.203094	0.637174	1	0	2.586957e+01
133.942291	1.279577	city	8	1	1.284321	1.284321	0	1	0	0	CorrectCommission	0.012487	0.617516	1	0	2.558696e+01
135.221970	1.279768	city	4	1	1.190204	1.190204	0	1	0	0	CorrectCommission	0.450921	0.600708	1	0	2.530435e+01
136.501663	1.279619	city	7	1	1.520935	1.520935	0	1	0	0	CorrectCommission	1.177510	0.588114	1	0	2.502174e+01
137.781219	1.279504	city	9	1	1.516556	1.516556	0	1	0	0	CorrectCommission	1.155953	0.580754	1	0	2.473913e+01
139.060730	1.279513	city	7	1	1.402731	1.402731	0	1	0	0	CorrectCommission	0.595508	0.579435	1	0	2.445652e+01
140.353638	1.306319	city	1	1	1.270854	1.270854	0	1	0	0	CorrectCommission	0.053822	0.584720	1	0	2.417391e+01
141.646591	1.279571	city	10	1	1.309269	1.309269	0	1	0	0	CorrectCommission	0.135325	0.596968	1	0	2.389130e+01
142.926178	1.279602	city	8	1	1.512421	1.512421	0	1	0	0	CorrectCommission	1.135590	0.616283	1	0	2.360870e+01
144.205750	1.279552	city	9	1	1.399542	1.399542	0	1	0	0	CorrectCommission	0.579803	0.642406	1	0	2.332609e+01
145.505310	1.319558	city	4	1	1.293458	1.293458	0	1	0	0	CorrectCommission	0.057475	0.674709	1	0	2.304348e+01
146.804886	1.279606	city	7	1	1.296875	1.296875	0	1	0	0	CorrectCommission	0.074297	0.712116	1	0	2.276087e+01
148.084488	1.279578	city	2	1	1.090063	1.090063	0	1	0	0	CorrectCommission	0.943990	0.753186	0	0	2.247826e+01
149.364059	1.279582	mountain	1	0	0.000000	1.222485	1	0	0	0	CorrectOmission	0.291978	0.796275	0	0	2.219565e+01
150.643646	1.279592	city	9	1	1.461987	1.461987	0	1	0	0	CorrectCommission	0.887268	0.839814	0	0	2.191304e+01
151.923157	1.279414	mountain	9	0	0.000000	1.576415	1	0	0	0	CorrectOmission	1.450683	0.882600	0	0	2.163043e+01
153.202728	1.279738	city	9	1	1.602095	1.602095	0	1	0	0	CorrectCommission	1.577122	0.924045	0	0	2.134783e+01
154.482391	1.279574	city	1	1	1.575351	1.575351	0	1	0	0	CorrectCommission	1.445442	0.964364	0	0	2.106522e+01
155.768539	1.292743	city	7	1	1.695129	1.695129	0	1	0	0	CorrectCommission	2.035200	1.004516	0	0	2.078261e+01
157.081436	1.333033	city	3	1	1.239760	1.239760	0	1	0	0	CorrectCommission	0.206918	1.045990	0	0	2.050000e+01
158.387695	1.279502	mountain	10	0	0.000000	1.114913	1	0	0	0	CorrectOmission	0.821633	1.090426	0	0	2.021739e+01
159.667206	1.279503	city	1	1	1.198806	1.198806	0	1	0	0	CorrectCommission	0.408566	1.139098	0	0	1.993478e+01
160.946838	1.279766	city	8	1	1.369658	1.369658	0	1	0	0	CorrectCommission	0.432664	1.192500	0	0	1.965217e+01
162.226501	1.279557	city	10	1	1.284529	1.284529	0	1	0	0	CorrectCommission	0.013510	1.250000	0	0	1.936957e+01
163.505981	1.279422	city	5	1	1.850695	1.850695	0	1	0	0	CorrectCommission	2.801166	1.309738	0	0	1.908696e+01
164.785568	1.279743	city	8	1	1.514069	1.514069	0	1	0	0	CorrectCommission	1.143706	1.368725	0	0	1.880435e+01
166.065231	1.279581	city	7	1	1.083597	1.083597	0	1	0	0	CorrectCommission	0.975828	1.423347	0	0	1.852174e+01
167.344803	1.279569	city	4	1	0.916483	0.916483	0	1	0	0	CorrectCommission	1.798650	1.469821	0	0	1.823913e+01
168.631058	1.292929	city	6	1	0.928162	0.928162	0	1	0	0	CorrectCommission	1.741147	1.504796	0	0	1.795652e+01
169.917267	1.279487	city	2	1	0.763054	0.763054	0	1	0	0	CorrectCommission	2.554096	1.525899	0	0	1.767391e+01
171.203445	1.292864	city	7	1	0.667872	0.667872	0	1	0	0	CorrectCommission	3.022750	1.532083	0	0	1.739130e+01
172.489716	1.279690	city	4	1	0.811726	0.811726	0	1	0	0	CorrectCommission	2.314450	1.523784	0	0	1.710870e+01
173.776031	1.292933	city	3	1	0.928884	0.928884	0	1	0	0	CorrectCommission	1.737591	1.502754	0	0	1.682609e+01
175.068893	1.292795	city	6	1	1.358776	1.358776	0	1	0	0	CorrectCommission	0.379083	1.471692	0	0	1.654348e+01
176.355118	1.279660	city	5	1	1.242237	1.242237	0	1	0	0	CorrectCommission	0.194722	1.433735	0	0	1.626087e+01
177.634750	1.279602	city	6	1	1.757376	1.757376	0	1	0	0	CorrectCommission	2.341686	1.391919	0	0	1.597826e+01
178.920990	1.292894	city	5	1	1.525453	1.525453	0	1	0	0	CorrectCommission	1.199756	1.348690	0	0	1.569565e+01
180.207245	1.279600	city	2	1	1.347697	1.347697	0	1	0	0	CorrectCommission	0.324533	1.305715	0	0	1.541304e+01
181.486832	1.279585	city	4	1	1.039833	1.039833	0	1	0	0	CorrectCommission	1.191310	1.263795	0	0	1.513043e+01
182.766418	1.279576	city	10	1	1.192596	1.192596	0	1	0	0	CorrectCommission	0.439145	1.222965	0	0	1.484783e+01
184.052658	1.292903	city	9	1	0.823057	0.823057	0	1	0	0	CorrectCommission	2.258655	1.182825	0	0	1.456522e+01
185.352219	1.306213	city	6	1	0.770033	0.770033	0	1	0	0	CorrectCommission	2.519736	1.142808	0	0	1.428261e+01
186.005325	8.663841	break	0	0	0.000000	0.937770	0	0	0	0	ThoughtProbe	1.693839	1.102476	0	14	14
195.308929	1.279531	city	5	1	1.203458	1.203458	0	1	0	0	CorrectCommission	0.385661	1.061680	0	0	1.376471e+01
196.588516	1.279633	city	1	1	1.444284	1.444284	0	1	0	0	CorrectCommission	0.800103	1.020542	0	0	1.352941e+01
197.868637	1.280622	city	2	1	1.337529	1.337529	0	1	0	0	CorrectCommission	0.274471	0.979341	0	0	1.329412e+01
199.148117	1.278350	city	7	1	1.123795	1.123795	0	1	0	0	CorrectCommission	0.777900	0.938338	0	0	1.305882e+01
200.427155	1.279712	city	10	1	1.124113	1.124113	0	1	0	0	CorrectCommission	0.776337	0.897691	0	0	1.282353e+01
201.706848	1.279666	mountain	9	1	1.284283	1.284283	0	0	1	0	CommissionError	0.012298	0.857412	0	0	1.258824e+01
202.986450	1.279536	city	4	0	0.000000	1.019292	0	0	0	1	OmissionError	1.292449	0.817399	0	0	1.235294e+01
204.266022	1.279619	city	9	1	0.806694	0.806694	0	1	0	0	CorrectCommission	2.339226	0.777540	0	0	1.211765e+01
205.545593	1.279541	city	6	1	1.124043	1.124043	0	1	0	0	CorrectCommission	0.776679	0.737891	0	0	1.188235e+01
206.825150	1.279559	city	9	1	1.337402	1.337402	0	1	0	0	CorrectCommission	0.273844	0.698859	1	0	1.164706e+01
208.104645	1.279434	city	5	1	1.335390	1.335390	0	1	0	0	CorrectCommission	0.263939	0.661215	1	0	1.141176e+01
209.384232	1.279738	mountain	10	0	0.000000	1.426792	1	0	0	0	CorrectOmission	0.713977	0.626056	1	0	1.117647e+01
210.663864	1.279538	city	4	1	1.462784	1.462784	0	1	0	0	CorrectCommission	0.891192	0.594684	1	0	1.094118e+01
211.943451	1.279614	city	6	1	1.294544	1.294544	0	1	0	0	CorrectCommission	0.062820	0.568406	1	0	1.070588e+01
213.223053	1.279599	city	5	1	1.390891	1.390891	0	1	0	0	CorrectCommission	0.537209	0.548282	1	0	1.047059e+01
214.502640	1.279575	city	1	1	1.232020	1.232020	0	1	0	0	CorrectCommission	0.245032	0.534908	1	0	1.023529e+01
215.782211	1.279560	city	9	1	1.199110	1.199110	0	1	0	0	CorrectCommission	0.407071	0.528293	1	0	10
217.061768	1.279567	city	8	1	1.282413	1.282413	0	1	0	0	CorrectCommission	0.003090	0.527734	1	0	9.764706e+00
218.341278	1.279446	city	5	1	1.284149	1.284149	0	1	0	0	CorrectCommission	0.011639	0.531921	1	0	9.529412e+00
219.620865	1.279723	city	1	1	1.445248	1.445248	0	1	0	0	CorrectCommission	0.804847	0.539038	1	0	9.294118e+00
220.900513	1.279574	city	10	1	1.444214	1.444214	0	1	0	0	CorrectCommission	0.799757	0.546994	1	0	9.058824e+00
222.180084	1.279590	city	2	1	1.550860	1.550860	0	1	0	0	CorrectCommission	1.324857	0.553761	1	0	8.823529e+00
223.459686	1.279596	city	1	1	1.388519	1.388519	0	1	0	0	CorrectCommission	0.525530	0.557635	1	0	8.588235e+00
224.739258	1.279560	city	8	1	1.365080	1.365080	0	1	0	0	CorrectCommission	0.410125	0.557475	1	0	8.352941e+00
226.018829	1.279576	city	5	1	1.444253	1.444253	0	1	0	0	CorrectCommission	0.799951	0.552847	1	0	8.117647e+00
227.298416	1.279597	city	3	1	1.420499	1.420499	0	1	0	0	CorrectCommission	0.682991	0.544062	1	0	7.882353e+00
228.578003	1.279564	city	2	1	1.444245	1.444245	0	1	0	0	CorrectCommission	0.799910	0.532144	1	0	7.647059e+00
229.857498	1.279424	city	5	1	1.390914	1.390914	0	1	0	0	CorrectCommission	0.537325	0.518692	1	0	7.411765e+00
231.137070	1.279746	city	4	1	1.284371	1.284371	0	1	0	0	CorrectCommission	0.012735	0.505662	1	0	7.176471e+00
232.416718	1.279528	city	7	1	1.177568	1.177568	0	1	0	0	CorrectCommission	0.513136	0.495164	1	0	6.941176e+00
233.696289	1.279621	city	1	1	1.177633	1.177633	0	1	0	0	CorrectCommission	0.512818	0.489203	1	0	6.705882e+00
234.975830	1.279464	city	3	1	1.390756	1.390756	0	1	0	0	CorrectCommission	0.536547	0.489516	1	0	6.470588e+00
236.255341	1.279562	city	7	1	1.282028	1.282028	0	1	0	0	CorrectCommission	0.001198	0.497334	1	0	6.235294e+00
240.300720	6.811202	break	0	0	0.000000	1.320712	0	0	0	0	ThoughtProbe	0.191666	0.513295	1	6	6
244.346130	1.279596	city	5	1	1.354453	1.354453	0	1	0	0	CorrectCommission	0.357796	0.537338	1	0	6.225000e+00
245.645615	1.319401	city	10	1	1.230895	1.230895	0	1	0	0	CorrectCommission	0.250571	0.568754	1	0	6.450000e+00
246.951859	1.293075	city	1	1	1.183080	1.183080	0	1	0	0	CorrectCommission	0.485998	0.606231	1	0	6.675000e+00
248.238129	1.279467	city	10	1	1.143527	1.143527	0	1	0	0	CorrectCommission	0.680745	0.648009	1	0	6.900000e+00
249.517715	1.279710	city	7	1	1.574557	1.574557	0	1	0	0	CorrectCommission	1.441532	0.691954	1	0	7.125000e+00
250.804031	1.292909	city	4	1	1.407566	1.407566	0	1	0	0	CorrectCommission	0.619312	0.735799	0	0	7.350000e+00
252.103500	1.306048	city	3	1	1.422443	1.422443	0	1	0	0	CorrectCommission	0.692561	0.777335	0	0	7.575000e+00
253.396454	1.279844	city	7	1	1.400728	1.400728	0	1	0	0	CorrectCommission	0.585643	0.814553	0	0	7.800000e+00
254.676117	1.279480	city	1	1	1.137199	1.137199	0	1	0	0	CorrectCommission	0.711904	0.845809	0	0	8.025000e+00
255.955658	1.279606	city	3	1	1.088688	1.088688	0	1	0	0	CorrectCommission	0.950757	0.869982	0	0	8.250000e+00
257.241913	1.292881	city	10	1	0.942889	0.942889	0	1	0	0	CorrectCommission	1.668634	0.886589	0	0	8.475000e+00
258.528137	1.279602	mountain	6	1	0.969439	0.969439	0	0	1	0	CommissionError	1.537911	0.895816	0	0	8.700000e+00
259.807709	1.279551	city	1	1	1.036830	1.036830	0	1	0	0	CorrectCommission	1.206093	0.898502	0	0	8.925000e+00
261.087219	1.279438	mountain	10	0	0.000000	1.352711	1	0	0	0	CorrectOmission	0.349220	0.896001	0	0	9.150000e+00
262.366791	1.279728	city	4	1	1.535524	1.535524	0	1	0	0	CorrectCommission	1.249344	0.889985	0	0	9.375000e+00
263.659790	1.306256	city	9	1	1.203713	1.203713	0	1	0	0	CorrectCommission	0.384405	0.882140	0	0	9.600000e+00
264.966064	1.306295	city	10	1	0.995786	0.995786	0	1	0	0	CorrectCommission	1.408183	0.873951	0	0	9.825000e+00
266.272247	1.306065	city	9	1	1.219213	1.219213	0	1	0	0	CorrectCommission	0.308087	0.866403	0	0	1.005000e+01
267.565125	1.279674	city	3	1	1.351949	1.351949	0	1	0	0	CorrectCommission	0.345466	0.859910	0	0	1.027500e+01
268.864777	1.319640	city	2	1	1.248231	1.248231	0	1	0	0	CorrectCommission	0.165214	0.854245	0	0	1.050000e+01
270.171021	1.292853	city	4	1	1.141966	1.141966	0	1	0	0	CorrectCommission	0.688431	0.848695	0	0	1.072500e+01
271.470551	1.306241	city	8	1	1.042004	1.042004	0	1	0	0	CorrectCommission	1.180618	0.842241	0	0	1.095000e+01
272.770142	1.292883	mountain	2	1	0.676496	0.676496	0	0	1	0	CommissionError	2.980287	0.833848	0	0	1.117500e+01
274.063019	1.292925	city	8	1	1.320688	1.320688	0	1	0	0	CorrectCommission	0.191546	0.822660	0	0	1.140000e+01
275.355957	1.292915	city	5	1	1.138394	1.138394	0	1	0	0	CorrectCommission	0.706018	0.808298	0	0	1.162500e+01
276.648865	1.292908	city	7	1	1.134465	1.134465	0	1	0	0	CorrectCommission	0.725367	0.790734	0	0	1.185000e+01
277.935089	1.279546	city	5	1	1.578045	1.578045	0	1	0	0	CorrectCommission	1.458706	0.770308	0	0	1.207500e+01
279.227905	1.306089	city	1	1	1.281548	1.281548	0	1	0	0	CorrectCommission	0.001165	0.747581	0	0	1.230000e+01
280.520844	1.279767	city	3	1	1.231889	1.231889	0	1	0	0	CorrectCommission	0.245675	0.723196	0	0	1.252500e+01
281.813843	1.306225	city	8	1	1.207868	1.207868	0	1	0	0	CorrectCommission	0.363951	0.697663	1	0	1.275000e+01
283.106750	1.279588	city	5	1	1.085326	1.085326	0	1	0	0	CorrectCommission	0.967311	0.671302	1	0	1.297500e+01
284.399628	1.306227	city	9	1	1.061522	1.061522	0	1	0	0	CorrectCommission	1.084518	0.644241	1	0	1.320000e+01
285.692535	1.279562	city	1	1	1.124943	1.124943	0	1	0	0	CorrectCommission	0.772248	0.616477	1	0	1.342500e+01
286.972107	1.279579	city	4	1	1.403552	1.403552	0	1	0	0	CorrectCommission	0.599547	0.588018	1	0	1.365000e+01
288.258362	1.292909	city	1	1	1.142814	1.142814	0	1	0	0	CorrectCommission	0.684256	0.558961	1	0	1.387500e+01
289.557831	1.306075	city	3	1	1.253342	1.253342	0	1	0	0	CorrectCommission	0.140046	0.529608	1	0	1.410000e+01
290.850769	1.279761	city	5	1	1.125050	1.125050	0	1	0	0	CorrectCommission	0.771724	0.500487	1	0	1.432500e+01
292.130432	1.279579	city	7	1	1.388843	1.388843	0	1	0	0	CorrectCommission	0.527126	0.472370	1	0	1.455000e+01
293.416687	1.292905	city	10	1	1.200224	1.200224	0	1	0	0	CorrectCommission	0.401586	0.446206	1	0	1.477500e+01
294.063141	9.036852	break	0	0	0.000000	1.201025	0	0	0	0	ThoughtProbe	0.397640	0.423021	1	15	15
303.739838	1.279742	city	4	1	1.289686	1.289686	0	1	0	0	CorrectCommission	0.038904	0.403841	1	0	1.532353e+01
305.019470	1.279474	city	6	1	1.364646	1.364646	0	1	0	0	CorrectCommission	0.407984	0.389575	1	0	1.564706e+01
306.325684	1.332981	city	9	1	1.275020	1.275020	0	1	0	0	CorrectCommission	0.033310	0.380898	1	0	1.597059e+01
307.631958	1.279588	city	3	1	1.411759	1.411759	0	1	0	0	CorrectCommission	0.639956	0.378255	1	0	1.629412e+01
308.911560	1.279579	city	8	1	1.296279	1.296279	0	1	0	0	CorrectCommission	0.071362	0.381767	1	0	1.661765e+01
310.191162	1.279610	city	2	1	1.289579	1.289579	0	1	0	0	CorrectCommission	0.038374	0.391356	1	0	1.694118e+01
311.483978	1.306066	mountain	4	0	0.000000	1.356463	1	0	0	0	CorrectOmission	0.367694	0.406687	1	0	1.726471e+01
312.783539	1.293069	city	2	1	1.423132	1.423132	0	1	0	0	CorrectCommission	0.695955	0.427238	1	0	1.758824e+01
314.076538	1.292914	city	10	0	0.000000	1.415787	0	0	0	1	OmissionError	0.659793	0.452289	1	0	1.791176e+01
315.362793	1.279555	city	9	1	1.337667	1.337667	0	1	0	0	CorrectCommission	0.275148	0.481001	1	0	1.823529e+01
316.642365	1.279607	city	6	1	1.192008	1.192008	0	1	0	0	CorrectCommission	0.442039	0.512374	1	0	1.855882e+01
317.935303	1.306290	city	1	1	1.271189	1.271189	0	1	0	0	CorrectCommission	0.052171	0.545237	1	0	1.888235e+01
319.234863	1.292842	city	7	1	1.483617	1.483617	0	1	0	0	CorrectCommission	0.993768	0.578277	1	0	1.920588e+01
320.534424	1.306243	city	1	1	1.399655	1.399655	0	1	0	0	CorrectCommission	0.580362	0.610045	1	0	1.952941e+01
321.827240	1.279418	city	7	1	1.362034	1.362034	0	1	0	0	CorrectCommission	0.395124	0.639109	1	0	1.985294e+01
323.113495	1.293068	city	6	1	1.224553	1.224553	0	1	0	0	CorrectCommission	0.281797	0.664151	1	0	2.017647e+01
324.399811	1.279554	city	2	1	1.017901	1.017901	0	1	0	0	CorrectCommission	1.299294	0.684119	1	0	2.050000e+01
325.692719	1.306261	city	5	1	0.936953	0.936953	0	1	0	0	CorrectCommission	1.697865	0.698417	1	0	2.082353e+01
326.985626	1.279554	city	7	1	1.303121	1.303121	0	1	0	0	CorrectCommission	0.105051	0.706967	1	0	2.114706e+01
328.278503	1.306240	city	2	1	1.000783	1.000783	0	1	0	0	CorrectCommission	1.383579	0.710313	1	0	2.147059e+01
329.571442	1.279605	city	1	1	1.512442	1.512442	0	1	0	0	CorrectCommission	1.135696	0.709514	1	0	2.179412e+01
330.871033	1.319563	mountain	4	1	1.324954	1.324954	0	0	1	0	CommissionError	0.212555	0.706060	1	0	2.211765e+01
332.197235	1.332874	city	5	1	1.188865	1.188865	0	1	0	0	CorrectCommission	0.457513	0.701671	1	0	2.244118e+01
333.503448	1.279554	city	8	1	1.152858	1.152858	0	1	0	0	CorrectCommission	0.634804	0.698077	1	0	2.276471e+01
334.789612	1.292767	city	5	1	1.200355	1.200355	0	1	0	0	CorrectCommission	0.400940	0.696825	1	0	2.308824e+01
336.075775	1.279581	city	7	1	1.344599	1.344599	0	1	0	0	CorrectCommission	0.309280	0.699118	1	0	2.341176e+01
337.375366	1.319574	city	2	1	1.061854	1.061854	0	1	0	0	CorrectCommission	1.082882	0.705769	1	0	2.373529e+01
338.674957	1.279577	city	6	1	1.313149	1.313149	0	1	0	0	CorrectCommission	0.154427	0.717147	1	0	2.405882e+01
339.974579	1.319679	city	2	1	1.110413	1.110413	0	1	0	0	CorrectCommission	0.843791	0.733300	0	0	2.438235e+01
341.274231	1.279613	city	4	1	1.085554	1.085554	0	1	0	0	CorrectCommission	0.966190	0.753943	0	0	2.470588e+01
342.560486	1.292926	city	9	1	1.047516	1.047516	0	1	0	0	CorrectCommission	1.153481	0.778562	0	0	2.502941e+01
343.859985	1.306080	city	7	1	1.071482	1.071482	0	1	0	0	CorrectCommission	1.035476	0.806437	0	0	2.535294e+01
345.152893	1.279722	city	4	1	1.182021	1.182021	0	1	0	0	CorrectCommission	0.491214	0.836629	0	0	2.567647e+01
349.484711	7.383947	break	0	0	0.000000	1.211412	0	0	0	0	ThoughtProbe	0.346497	0.868003	0	26	26
353.843292	1.333202	city	2	1	1.242323	1.242323	0	1	0	0	CorrectCommission	0.194301	0.899149	0	0	2.575000e+01
355.149597	1.279415	city	1	1	1.357418	1.357418	0	1	0	0	CorrectCommission	0.372397	0.928460	0	0	2.550000e+01
356.429199	1.279760	city	7	1	1.842007	1.842007	0	1	0	0	CorrectCommission	2.758389	0.954249	0	0	2.525000e+01
357.728851	1.319580	mountain	4	0	0.000000	1.534002	1	0	0	0	CorrectOmission	1.241849	0.974856	0	0	2.500000e+01
359.041626	1.305961	city	10	1	1.205970	1.205970	0	1	0	0	CorrectCommission	0.373293	0.988918	0	0	2.475000e+01
360.334534	1.279811	city	3	1	1.630482	1.630482	0	1	0	0	CorrectCommission	1.716894	0.995481	0	0	2.450000e+01
361.620880	1.292916	city	7	1	1.535427	1.535427	0	1	0	0	CorrectCommission	1.248869	0.994178	0	0	2.425000e+01
362.933716	1.332749	city	5	1	1.231408	1.231408	0	1	0	0	CorrectCommission	0.248043	0.985345	0	0	24
364.259949	1.319726	city	1	1	0.944482	0.944482	0	1	0	0	CorrectCommission	1.660794	0.970025	0	0	2.375000e+01
365.559601	1.279559	city	2	1	0.978526	0.978526	0	1	0	0	CorrectCommission	1.493171	0.949819	0	0	2.350000e+01
366.839172	1.279592	city	4	1	1.133793	1.133793	0	1	0	0	CorrectCommission	0.728676	0.926784	0	0	2.325000e+01
368.118774	1.279582	city	8	1	1.057890	1.057890	0	1	0	0	CorrectCommission	1.102400	0.903151	0	0	23
369.411682	1.306239	mountain	4	0	0.000000	1.249299	1	0	0	0	CorrectOmission	0.159954	0.881008	0	0	2.275000e+01
370.704498	1.279427	city	3	1	1.461546	1.461546	0	1	0	0	CorrectCommission	0.885098	0.862066	0	0	2.250000e+01
371.997406	1.306356	city	5	1	1.448161	1.448161	0	1	0	0	CorrectCommission	0.819192	0.847311	0	0	2.225000e+01
373.297058	1.292941	city	2	1	1.215473	1.215473	0	1	0	0	CorrectCommission	0.326502	0.836931	0	0	22
374.609955	1.332849	city	5	1	1.189095	1.189095	0	1	0	0	CorrectCommission	0.456381	0.830240	0	0	2.175000e+01
375.922852	1.292948	city	8	1	1.347615	1.347615	0	1	0	0	CorrectCommission	0.324128	0.825758	0	0	2.150000e+01
377.229034	1.319427	city	7	1	1.659515	1.659515	0	1	0	0	CorrectCommission	1.859845	0.821465	0	0	2.125000e+01
378.535278	1.293053	city	5	1	1.416344	1.416344	0	1	0	0	CorrectCommission	0.662535	0.815096	0	0	21
379.821564	1.279561	city	10	1	1.306251	1.306251	0	1	0	0	CorrectCommission	0.120465	0.804591	0	0	2.075000e+01
381.101074	1.279427	city	7	1	1.586554	1.586554	0	1	0	0	CorrectCommission	1.500603	0.788413	0	0	2.050000e+01
382.380676	1.279786	city	3	1	1.769085	1.769085	0	1	0	0	CorrectCommission	2.399335	0.765784	0	0	2.025000e+01
383.680298	1.319485	city	8	1	1.514703	1.514703	0	1	0	0	CorrectCommission	1.146826	0.736876	0	0	20
384.999847	1.319571	city	1	1	1.278595	1.278595	0	1	0	0	CorrectCommission	0.015708	0.702791	1	0	1.975000e+01
386.319427	1.319598	city	8	1	1.220137	1.220137	0	1	0	0	CorrectCommission	0.303537	0.665451	1	0	1.950000e+01
387.625671	1.292903	mountain	7	0	0.000000	1.346450	1	0	0	0	CorrectOmission	0.318395	0.627276	1	0	1.925000e+01
388.911926	1.279590	city	4	1	1.433815	1.433815	0	1	0	0	CorrectCommission	0.748555	0.590919	1	0	19
390.198120	1.292795	city	6	1	1.258511	1.258511	0	1	0	0	CorrectCommission	0.114594	0.558910	1	0	1.875000e+01
391.491028	1.293021	city	8	1	1.145867	1.145867	0	1	0	0	CorrectCommission	0.669227	0.533467	1	0	1.850000e+01
392.810638	1.346221	city	5	1	1.217295	1.217295	0	1	0	0	CorrectCommission	0.317532	0.516175	1	0	1.825000e+01
394.123535	1.279548	city	8	1	1.297910	1.297910	0	1	0	0	CorrectCommission	0.079394	0.507953	1	0	18
395.409760	1.292936	city	1	1	1.423164	1.423164	0	1	0	0	CorrectCommission	0.696115	0.508991	1	0	1.775000e+01
396.695923	1.279397	city	9	1	1.247908	1.247908	0	1	0	0	CorrectCommission	0.166800	0.518718	1	0	1.750000e+01
397.995514	1.319754	city	4	1	1.207707	1.207707	0	1	0	0	CorrectCommission	0.364742	0.535941	1	0	1.725000e+01
399.315155	1.319557	city	5	1	1.148023	1.148023	0	1	0	0	CorrectCommission	0.658611	0.558879	1	0	17
400.614746	1.279589	city	9	1	1.354882	1.354882	0	1	0	0	CorrectCommission	0.359909	0.585369	1	0	1.675000e+01
401.907623	1.306148	city	5	1	1.204078	1.204078	0	1	0	0	CorrectCommission	0.382609	0.613070	1	0	1.650000e+01
403.207184	1.292994	city	6	1	1.127905	1.127905	0	1	0	0	CorrectCommission	0.757664	0.639676	1	0	1.625000e+01
407.279144	6.850908	break	0	0	0.000000	1.354651	0	0	0	0	ThoughtProbe	0.358773	0.663169	1	16	16
411.364441	1.319716	city	7	1	1.605724	1.605724	0	1	0	0	CorrectCommission	1.594992	0.682027	1	0	1.588235e+01
412.664093	1.279577	mountain	4	0	0.000000	1.602534	1	0	0	0	CorrectOmission	1.579286	0.695415	1	0	1.576471e+01
413.950287	1.292810	city	4	1	1.464628	1.464628	0	1	0	0	CorrectCommission	0.900269	0.703336	1	0	1.564706e+01
415.263184	1.332982	city	2	1	1.311551	1.311551	0	1	0	0	CorrectCommission	0.146561	0.706591	1	0	1.552941e+01
416.582794	1.306244	city	8	1	1.124511	1.124511	0	1	0	0	CorrectCommission	0.774379	0.706659	1	0	1.541176e+01
417.902374	1.332909	city	6	1	1.284084	1.284084	0	1	0	0	CorrectCommission	0.011318	0.705476	1	0	1.529412e+01
419.221954	1.306234	city	2	1	0.983282	0.983282	0	1	0	0	CorrectCommission	1.469752	0.705206	1	0	1.517647e+01
420.541504	1.332906	city	5	1	1.181496	1.181496	0	1	0	0	CorrectCommission	0.493795	0.707824	1	0	1.505882e+01
421.847748	1.279564	city	1	1	1.495272	1.495272	0	1	0	0	CorrectCommission	1.051156	0.714900	1	0	1.494118e+01
423.173920	1.372809	city	9	1	1.278420	1.278420	0	1	0	0	CorrectCommission	0.016569	0.727237	0	0	1.482353e+01
424.506805	1.292922	city	7	1	1.254676	1.254676	0	1	0	0	CorrectCommission	0.133478	0.744795	0	0	1.470588e+01
425.793091	1.279640	city	5	1	1.141767	1.141767	0	1	0	0	CorrectCommission	0.689411	0.766562	0	0	1.458824e+01
427.079346	1.292898	city	2	1	1.155135	1.155135	0	1	0	0	CorrectCommission	0.623591	0.790629	0	0	1.447059e+01
428.372253	1.292930	city	5	1	1.129584	1.129584	0	1	0	0	CorrectCommission	0.749401	0.814496	0	0	1.435294e+01
429.665192	1.292914	city	8	1	1.215311	1.215311	0	1	0	0	CorrectCommission	0.327301	0.835399	0	0	1.423529e+01
430.951355	1.279423	city	10	1	0.978726	0.978726	0	1	0	0	CorrectCommission	1.492186	0.850772	0	0	1.411765e+01
432.237610	1.293067	city	1	1	0.936632	0.936632	0	1	0	0	CorrectCommission	1.699444	0.858628	0	0	14
433.523865	1.279445	mountain	1	0	0.000000	0.860766	1	0	0	0	CorrectOmission	2.072989	0.857916	0	0	1.388235e+01
434.803345	1.279551	city	5	1	0.930049	0.930049	0	1	0	0	CorrectCommission	1.731857	0.848662	0	0	1.376471e+01
436.089569	1.292906	city	6	1	1.323403	1.323403	0	1	0	0	CorrectCommission	0.204918	0.831949	0	0	1.364706e+01
437.395874	1.319712	city	9	1	1.283325	1.283325	0	1	0	0	CorrectCommission	0.007580	0.809681	0	0	1.352941e+01
438.695526	1.279596	city	10	1	1.361507	1.361507	0	1	0	0	CorrectCommission	0.392532	0.784182	0	0	1.341176e+01
439.975128	1.279560	city	2	1	1.432236	1.432236	0	1	0	0	CorrectCommission	0.740780	0.757815	0	0	1.329412e+01
441.274689	1.319584	city	4	1	1.507872	1.507872	0	1	0	0	CorrectCommission	1.113196	0.732661	0	0	1.317647e+01
442.587585	1.306237	city	1	1	1.156322	1.156322	0	1	0	0	CorrectCommission	0.617746	0.710237	1	0	1.305882e+01
443.900421	1.319413	city	7	1	1.214708	1.214708	0	1	0	0	CorrectCommission	0.330269	0.691417	1	0	1.294118e+01
445.206635	1.293010	city	1	1	1.203638	1.203638	0	1	0	0	CorrectCommission	0.384776	0.676424	1	0	1.282353e+01
446.526215	1.346124	city	10	1	1.308840	1.308840	0	1	0	0	CorrectCommission	0.133213	0.665026	1	0	1.270588e+01
447.859100	1.319691	city	2	1	1.329898	1.329898	0	1	0	0	CorrectCommission	0.236893	0.656752	1	0	1.258824e+01
449.158752	1.279599	city	1	1	1.568758	1.568758	0	1	0	0	CorrectCommission	1.412979	0.651158	1	0	1.247059e+01
450.445007	1.292897	city	5	1	1.807298	1.807298	0	1	0	0	CorrectCommission	2.587489	0.647967	1	0	1.235294e+01
451.744537	1.306171	city	8	1	1.316369	1.316369	0	1	0	0	CorrectCommission	0.170283	0.647189	1	0	1.223529e+01
453.070770	1.346304	city	6	1	1.235475	1.235475	0	1	0	0	CorrectCommission	0.228020	0.649138	1	0	1.211765e+01
453.743927	8.463718	break	0	0	0.000000	1.223326	0	0	0	0	ThoughtProbe	0.287836	0.654167	1	12	12
462.847534	1.279747	city	4	1	1.257911	1.257911	0	1	0	0	CorrectCommission	0.117548	0.662498	1	0	1.210870e+01
464.127167	1.279553	city	8	1	1.317218	1.317218	0	1	0	0	CorrectCommission	0.174461	0.674051	1	0	1.221739e+01
465.446747	1.359572	city	10	1	1.268253	1.268253	0	1	0	0	CorrectCommission	0.066629	0.688311	1	0	1.232609e+01
466.772888	1.292738	city	9	1	1.370113	1.370113	0	1	0	0	CorrectCommission	0.434904	0.704356	1	0	1.243478e+01
468.065796	1.293062	mountain	4	0	0.000000	1.624907	1	0	0	0	CorrectOmission	1.689444	0.721004	0	0	1.254348e+01
469.352112	1.279585	city	4	1	1.686936	1.686936	0	1	0	0	CorrectCommission	1.994857	0.737036	0	0	1.265217e+01
470.638367	1.292924	city	5	1	1.210500	1.210500	0	1	0	0	CorrectCommission	0.350991	0.751455	0	0	1.276087e+01
471.924561	1.279490	mountain	10	0	0.000000	1.362194	1	0	0	0	CorrectOmission	0.395911	0.763714	0	0	1.286957e+01
473.204132	1.279650	city	7	1	1.617701	1.617701	0	1	0	0	CorrectCommission	1.653963	0.773673	0	0	1.297826e+01
474.510437	1.332915	city	6	1	1.452705	1.452705	0	1	0	0	CorrectCommission	0.841567	0.781545	0	0	1.308696e+01
475.870758	1.387764	city	4	1	1.352974	1.352974	0	1	0	0	CorrectCommission	0.350518	0.787816	0	0	1.319565e+01
477.203644	1.277980	city	6	1	1.302438	1.302438	0	1	0	0	CorrectCommission	0.101692	0.792995	0	0	1.330435e+01
478.482422	1.279613	city	8	1	1.228454	1.228454	0	1	0	0	CorrectCommission	0.262586	0.797402	0	0	1.341304e+01
479.768707	1.292920	city	6	1	1.043432	1.043432	0	1	0	0	CorrectCommission	1.173587	0.801089	0	0	1.352174e+01
481.068268	1.306243	mountain	10	0	0.000000	1.012186	1	0	0	0	CorrectOmission	1.327436	0.803783	0	0	1.363043e+01
482.381165	1.319549	city	8	1	1.077288	1.077288	0	1	0	0	CorrectCommission	1.006891	0.805041	0	0	1.373913e+01
483.680664	1.279403	city	2	1	1.181310	1.181310	0	1	0	0	CorrectCommission	0.494712	0.804364	0	0	1.384783e+01
484.980133	1.319578	city	4	1	1.201125	1.201125	0	1	0	0	CorrectCommission	0.397147	0.801382	0	0	1.395652e+01
486.279724	1.279587	city	2	1	1.567746	1.567746	0	1	0	0	CorrectCommission	1.407998	0.796047	0	0	1.406522e+01
487.579285	1.319541	city	1	1	1.488900	1.488900	0	1	0	0	CorrectCommission	1.019782	0.788756	0	0	1.417391e+01
488.905609	1.333086	city	2	1	1.629226	1.629226	0	1	0	0	CorrectCommission	1.710711	0.780410	0	0	1.428261e+01
490.211945	1.279581	city	4	1	1.368503	1.368503	0	1	0	0	CorrectCommission	0.426974	0.772309	0	0	1.439130e+01
491.518066	1.332702	city	3	1	1.196186	1.196186	0	1	0	0	CorrectCommission	0.421470	0.766029	0	0	1.450000e+01
492.837555	1.306276	city	8	1	1.267515	1.267515	0	1	0	0	CorrectCommission	0.070263	0.763125	0	0	1.460870e+01
494.137238	1.293055	city	5	1	1.418191	1.418191	0	1	0	0	CorrectCommission	0.671625	0.764936	0	0	1.471739e+01
495.463531	1.359554	city	8	1	1.206256	1.206256	0	1	0	0	CorrectCommission	0.371886	0.772364	0	0	1.482609e+01
496.789764	1.292896	city	3	1	1.482069	1.482069	0	1	0	0	CorrectCommission	0.986146	0.785770	0	0	1.493478e+01
498.089264	1.306091	city	1	1	1.403936	1.403936	0	1	0	0	CorrectCommission	0.601440	0.804907	0	0	1.504348e+01
499.435486	1.386347	city	2	1	1.204808	1.204808	0	1	0	0	CorrectCommission	0.379013	0.829037	0	0	1.515217e+01
500.768433	1.279580	city	7	1	1.521124	1.521124	0	1	0	0	CorrectCommission	1.178441	0.856976	0	0	1.526087e+01
502.054688	1.292908	city	6	1	1.738503	1.738503	0	1	0	0	CorrectCommission	2.248759	0.887173	0	0	1.536957e+01
503.367554	1.332854	city	1	1	1.284822	1.284822	0	1	0	0	CorrectCommission	0.014954	0.917869	0	0	1.547826e+01
504.693726	1.319487	city	9	1	1.184637	1.184637	0	1	0	0	CorrectCommission	0.478331	0.947266	0	0	1.558696e+01
506.013275	1.319617	city	5	1	1.350994	1.350994	0	1	0	0	CorrectCommission	0.340765	0.973451	0	0	1.569565e+01
507.332825	1.319477	city	9	1	1.715781	1.715781	0	1	0	0	CorrectCommission	2.136882	0.994497	0	0	1.580435e+01
508.632446	1.279781	city	8	1	1.619763	1.619763	0	1	0	0	CorrectCommission	1.664118	1.008483	0	0	1.591304e+01
509.912140	1.279591	mountain	5	0	0.000000	1.197831	1	0	0	0	CorrectOmission	0.413366	1.013607	0	0	1.602174e+01
511.211700	1.319528	city	1	1	0.943803	0.943803	0	1	0	0	CorrectCommission	1.664135	1.008253	0	0	1.613043e+01
512.517944	1.292916	city	5	1	1.351497	1.351497	0	1	0	0	CorrectCommission	0.343243	0.991094	0	0	1.623913e+01
513.830811	1.332884	city	7	1	1.140397	1.140397	0	1	0	0	CorrectCommission	0.696157	0.961291	0	0	1.634783e+01
515.183716	1.372863	city	10	1	0.853707	0.853707	0	1	0	0	CorrectCommission	2.107746	0.918565	0	0	1.645652e+01
516.523254	1.306240	city	1	1	1.698938	1.698938	0	1	0	0	CorrectCommission	2.053952	0.863306	0	0	1.656522e+01
517.822754	1.292750	city	8	1	1.460783	1.460783	0	1	0	0	CorrectCommission	0.881340	0.796715	0	0	1.667391e+01
519.135620	1.333038	city	1	1	1.335834	1.335834	0	1	0	0	CorrectCommission	0.266122	0.720809	0	0	1.678261e+01
520.455200	1.306116	city	5	1	1.364891	1.364891	0	1	0	0	CorrectCommission	0.409193	0.638265	1	0	1.689130e+01
523.834229	5.451897	break	0	0	0.000000	1.393949	0	0	0	0	ThoughtProbe	0.552264	0.552264	1	17	17
