onset	duration	trial_type	image_type	Press	ReactionTime	ReactionTime_Interpolated	CorrectOmission	CorrectCommission	CommissionError	OmissionError	response_type	nonsmoothVarianceTimeCourse	VarianceTimeCourse	In_the_Zone	ThoughtProbe	ThoughtProbe_Interpolated
0.653173	1.279611	city	6	1	1.352267	1.352267	0	1	0	0	CorrectCommission	1.458320	1.458320	0	0	60
1.939434	1.292912	city	8	1	0.728911	0.728911	0	1	0	0	CorrectCommission	0.859739	1.306155	0	0	60
3.225680	1.279579	city	2	1	0.804229	0.804229	0	1	0	0	CorrectCommission	0.579652	1.159614	0	0	60
4.505250	1.279562	mountain	9	0	0.000000	0.907181	1	0	0	0	CorrectOmission	0.196807	1.023704	0	0	60
5.784822	1.279581	city	4	1	0.967392	0.967392	0	1	0	0	CorrectCommission	0.027095	0.902338	0	0	60
7.064403	1.279581	city	7	1	0.914485	0.914485	0	1	0	0	CorrectCommission	0.169648	0.797971	0	0	60
8.343981	1.279575	city	8	1	0.698207	0.698207	0	1	0	0	CorrectCommission	0.973915	0.711497	1	0	60
9.623476	1.279415	mountain	8	0	0.000000	0.981624	1	0	0	0	CorrectOmission	0.080022	0.642343	1	0	60
10.903051	1.279736	city	7	1	1.235193	1.235193	0	1	0	0	CorrectCommission	1.022962	0.588787	1	0	60
12.182670	1.279501	city	10	1	0.929370	0.929370	0	1	0	0	CorrectCommission	0.114296	0.548284	1	0	60
13.462199	1.279559	city	1	0	0.000000	1.070857	0	0	0	1	OmissionError	0.411849	0.517936	1	0	60
14.741830	1.279702	city	5	1	1.240026	1.240026	0	1	0	0	CorrectCommission	1.040934	0.494877	1	0	60
16.021450	1.279538	city	6	1	1.017248	1.017248	0	1	0	0	CorrectCommission	0.212496	0.476584	1	0	60
17.301027	1.279616	city	1	1	1.136538	1.136538	0	1	0	0	CorrectCommission	0.656094	0.461159	1	0	60
18.580614	1.279561	city	2	1	1.075223	1.075223	0	1	0	0	CorrectCommission	0.428087	0.447405	1	0	60
19.860193	1.279596	city	10	1	0.858793	0.858793	0	1	0	0	CorrectCommission	0.376747	0.434879	1	0	60
21.139774	1.279567	city	1	1	0.911963	0.911963	0	1	0	0	CorrectCommission	0.179025	0.423817	1	0	60
22.419357	1.279596	city	3	1	0.857841	0.857841	0	1	0	0	CorrectCommission	0.380289	0.415002	1	0	60
23.698938	1.279569	mountain	7	1	0.601628	0.601628	0	0	1	0	CommissionError	1.333059	0.409571	1	0	60
24.978495	1.279541	city	10	1	0.965931	0.965931	0	1	0	0	CorrectCommission	0.021664	0.408803	1	0	60
26.258080	1.279629	city	7	1	0.962616	0.962616	0	1	0	0	CorrectCommission	0.009334	0.413952	1	0	60
27.537676	1.279561	city	5	1	0.929758	0.929758	0	1	0	0	CorrectCommission	0.112853	0.425990	1	0	60
28.817183	1.279453	city	4	1	0.888821	0.888821	0	1	0	0	CorrectCommission	0.265082	0.445487	1	0	60
30.096766	1.279713	city	8	1	0.980365	0.980365	0	1	0	0	CorrectCommission	0.075340	0.472524	1	0	60
31.376364	1.279483	city	9	1	0.925852	0.925852	0	1	0	0	CorrectCommission	0.127379	0.506695	1	0	60
32.655945	1.279681	city	6	1	0.826458	0.826458	0	1	0	0	CorrectCommission	0.496991	0.547176	1	0	60
33.935562	1.279555	city	8	1	0.764081	0.764081	0	1	0	0	CorrectCommission	0.728952	0.592855	1	0	60
35.215134	1.279583	city	4	1	0.722538	0.722538	0	1	0	0	CorrectCommission	0.883435	0.642478	1	0	60
36.501389	1.292928	city	1	1	0.620513	0.620513	0	1	0	0	CorrectCommission	1.262835	0.694767	1	0	60
37.794319	1.292935	city	6	1	0.774057	0.774057	0	1	0	0	CorrectCommission	0.691855	0.748518	1	0	60
39.087147	1.292722	mountain	10	1	0.728054	0.728054	0	0	1	0	CommissionError	0.862925	0.802560	0	0	60
40.373295	1.279570	city	5	1	0.822257	0.822257	0	1	0	0	CorrectCommission	0.512612	0.855707	0	0	60
41.672943	1.319730	city	7	1	1.151660	1.151660	0	1	0	0	CorrectCommission	0.712329	0.906667	0	0	60
42.972603	1.279586	city	6	1	1.069752	1.069752	0	1	0	0	CorrectCommission	0.407742	0.953937	0	0	60
44.258835	1.292884	city	5	1	1.327671	1.327671	0	1	0	0	CorrectCommission	1.366856	0.995822	0	0	60
45.578308	1.346060	city	8	1	1.227164	1.227164	0	1	0	0	CorrectCommission	0.993103	1.030442	0	0	60
46.897873	1.293073	city	3	1	1.369424	1.369424	0	1	0	0	CorrectCommission	1.522124	1.055968	0	0	60
48.190796	1.292768	city	4	1	1.371862	1.371862	0	1	0	0	CorrectCommission	1.531190	1.070754	0	0	60
49.483700	1.293044	city	6	1	1.396888	1.396888	0	1	0	0	CorrectCommission	1.624253	1.073594	0	0	60
50.789902	1.319356	city	7	1	1.275417	1.275417	0	1	0	0	CorrectCommission	1.172540	1.063970	0	0	60
52.089409	1.279658	city	5	1	1.240609	1.240609	0	1	0	0	CorrectCommission	1.043100	1.042194	0	0	60
53.369038	1.279602	city	7	1	1.355375	1.355375	0	1	0	0	CorrectCommission	1.469881	1.009514	0	0	60
54.661938	1.306198	city	1	1	1.276338	1.276338	0	1	0	0	CorrectCommission	1.175967	0.968046	0	0	60
55.961575	1.293073	city	4	1	1.195115	1.195115	0	1	0	0	CorrectCommission	0.873925	0.920673	0	0	60
57.254555	1.292890	city	6	1	1.214611	1.214611	0	1	0	0	CorrectCommission	0.946422	0.870791	0	0	60
60.446827	5.091651	break	0	0	0.000000	1.158149	0	0	0	0	ThoughtProbe	0.736460	0.822003	0	60	60
63.639069	1.292832	city	1	1	1.084767	1.084767	0	1	0	0	CorrectCommission	0.463577	0.777788	0	0	6.002500e+01
64.925240	1.279512	city	4	1	1.053501	1.053501	0	1	0	0	CorrectCommission	0.347306	0.741133	1	0	6.005000e+01
66.204811	1.279635	city	5	1	1.245640	1.245640	0	1	0	0	CorrectCommission	1.061810	0.714235	1	0	6.007500e+01
67.497795	1.306331	city	1	1	0.943139	0.943139	0	1	0	0	CorrectCommission	0.063094	0.698241	1	0	6.010000e+01
68.797340	1.292751	city	4	1	0.919391	0.919391	0	1	0	0	CorrectCommission	0.151405	0.693177	1	0	6.012500e+01
70.083519	1.279612	city	1	1	0.942747	0.942747	0	1	0	0	CorrectCommission	0.064552	0.697906	1	0	6.015000e+01
71.363152	1.279647	city	5	1	0.858047	0.858047	0	1	0	0	CorrectCommission	0.379520	0.710304	1	0	6.017500e+01
72.642715	1.279489	city	4	1	0.838162	0.838162	0	1	0	0	CorrectCommission	0.453470	0.727549	1	0	6.020000e+01
73.922188	1.279459	city	1	1	0.769769	0.769769	0	1	0	0	CorrectCommission	0.707799	0.746487	1	0	6.022500e+01
75.201797	1.279759	city	2	1	1.680597	1.680597	0	1	0	0	CorrectCommission	2.679274	0.764026	0	0	6.025000e+01
76.494843	1.306320	mountain	4	0	0.000000	1.467317	1	0	0	0	CorrectOmission	1.886155	0.777433	0	0	6.027500e+01
77.794411	1.292829	city	5	1	0.974013	0.974013	0	1	0	0	CorrectCommission	0.051719	0.784680	0	0	6.030000e+01
79.087318	1.292987	city	1	1	1.044771	1.044771	0	1	0	0	CorrectCommission	0.314844	0.784531	0	0	6.032500e+01
80.380272	1.292917	mountain	6	0	0.000000	0.822443	1	0	0	0	CorrectOmission	0.511922	0.776525	0	0	6.035000e+01
81.673187	1.292907	city	10	1	0.721864	0.721864	0	1	0	0	CorrectCommission	0.885943	0.760929	1	0	6.037500e+01
82.966095	1.292919	city	8	1	1.157868	1.157868	0	1	0	0	CorrectCommission	0.735415	0.738646	1	0	6.040000e+01
84.258919	1.292722	city	6	1	1.283154	1.283154	0	1	0	0	CorrectCommission	1.201314	0.711168	1	0	6.042500e+01
85.545013	1.279474	city	8	1	1.262497	1.262497	0	1	0	0	CorrectCommission	1.124495	0.680427	1	0	6.045000e+01
86.824692	1.279879	city	7	1	1.188995	1.188995	0	1	0	0	CorrectCommission	0.851166	0.648720	1	0	6.047500e+01
88.131027	1.332785	city	3	1	1.127850	1.127850	0	1	0	0	CorrectCommission	0.623787	0.618616	1	0	6.050000e+01
89.437164	1.279497	city	9	1	0.940029	0.940029	0	1	0	0	CorrectCommission	0.074659	0.592774	1	0	6.052500e+01
90.716782	1.279738	city	2	1	0.984873	0.984873	0	1	0	0	CorrectCommission	0.092104	0.573731	1	0	6.055000e+01
92.016365	1.319421	city	7	1	0.900658	0.900658	0	1	0	0	CorrectCommission	0.221067	0.563709	1	0	6.057500e+01
93.322540	1.292928	city	1	1	0.780012	0.780012	0	1	0	0	CorrectCommission	0.669707	0.564363	1	0	6.060000e+01
94.608803	1.279596	mountain	9	0	0.000000	0.826142	1	0	0	0	CorrectOmission	0.498166	0.576588	1	0	6.062500e+01
95.895111	1.293021	city	1	1	0.890982	0.890982	0	1	0	0	CorrectCommission	0.257049	0.600430	1	0	6.065000e+01
97.188087	1.292935	city	2	1	0.826465	0.826465	0	1	0	0	CorrectCommission	0.496963	0.634950	1	0	6.067500e+01
98.474342	1.279574	city	4	1	1.036623	1.036623	0	1	0	0	CorrectCommission	0.284545	0.678254	1	0	6.070000e+01
99.753906	1.279556	city	5	1	0.990931	0.990931	0	1	0	0	CorrectCommission	0.114630	0.727691	1	0	6.072500e+01
101.033394	1.279418	city	3	1	0.829389	0.829389	0	1	0	0	CorrectCommission	0.486093	0.780087	0	0	6.075000e+01
102.312965	1.279724	city	2	1	0.715244	0.715244	0	1	0	0	CorrectCommission	0.910559	0.832101	0	0	6.077500e+01
103.592636	1.279620	city	10	1	0.601619	0.601619	0	1	0	0	CorrectCommission	1.333095	0.880606	0	0	6.080000e+01
104.892136	1.319387	city	4	1	1.676961	1.676961	0	1	0	0	CorrectCommission	2.665754	0.923163	0	0	6.082500e+01
106.198303	1.292936	city	5	1	1.349192	1.349192	0	1	0	0	CorrectCommission	1.446887	0.958323	0	0	6.085000e+01
107.484612	1.279681	city	1	1	0.922552	0.922552	0	1	0	0	CorrectCommission	0.139650	0.985841	0	0	6.087500e+01
108.777466	1.306038	city	3	1	1.279016	1.279016	0	1	0	0	CorrectCommission	1.185924	1.006653	0	0	6.090000e+01
110.070374	1.279777	city	10	1	1.312351	1.312351	0	1	0	0	CorrectCommission	1.309886	1.022625	0	0	6.092500e+01
111.363396	1.306263	city	1	1	1.064062	1.064062	0	1	0	0	CorrectCommission	0.386581	1.036276	0	0	6.095000e+01
112.656319	1.279581	city	9	1	0.594851	0.594851	0	1	0	0	CorrectCommission	1.358261	1.050318	0	0	6.097500e+01
115.648666	4.705114	break	0	1	0.497049	0.497049	0	0	0	0	ThoughtProbe	1.721954	1.067092	0	61	61
118.641014	1.279584	city	10	0	0.000000	0.878580	0	0	0	1	OmissionError	0.303168	1.088167	0	0	6.102941e+01
119.927254	1.292901	city	8	1	1.206460	1.206460	0	1	0	0	CorrectCommission	0.916112	1.113997	0	0	6.105882e+01
121.213501	1.279587	mountain	6	0	0.000000	0.947709	1	0	0	0	CorrectOmission	0.046099	1.143646	0	0	6.108824e+01
122.493004	1.279424	city	3	1	0.804950	0.804950	0	1	0	0	CorrectCommission	0.576974	1.174879	0	0	6.111765e+01
123.779198	1.292956	city	5	1	1.480807	1.480807	0	1	0	0	CorrectCommission	1.936318	1.204350	0	0	6.114706e+01
125.072159	1.292974	city	2	0	0.000000	1.268919	0	0	0	1	OmissionError	1.148378	1.228056	0	0	6.117647e+01
126.358376	1.279451	city	5	1	1.046612	1.046612	0	1	0	0	CorrectCommission	0.321689	1.241993	0	0	6.120588e+01
127.651329	1.306464	city	2	1	1.691208	1.691208	0	1	0	0	CorrectCommission	2.718734	1.242767	0	0	6.123529e+01
128.951004	1.292878	city	4	1	1.889045	1.889045	0	1	0	0	CorrectCommission	3.454424	1.228066	0	0	6.126471e+01
130.237183	1.279484	city	6	1	1.679541	1.679541	0	1	0	0	CorrectCommission	2.675347	1.197103	0	0	6.129412e+01
131.530075	1.306310	mountain	7	0	0.000000	1.145496	1	0	0	0	CorrectOmission	0.689407	1.150699	0	0	6.132353e+01
132.823029	1.279593	city	10	1	0.772539	0.772539	0	1	0	0	CorrectCommission	0.697499	1.091089	0	0	6.135294e+01
134.115952	1.306243	city	2	1	1.046300	1.046300	0	1	0	0	CorrectCommission	0.320528	1.021472	0	0	6.138235e+01
135.422180	1.306225	city	10	1	0.955954	0.955954	0	1	0	0	CorrectCommission	0.015438	0.945571	0	0	6.141176e+01
136.728409	1.306228	city	6	1	0.714352	0.714352	0	1	0	0	CorrectCommission	0.913877	0.867103	0	0	6.144118e+01
138.021255	1.279455	city	8	1	0.723705	0.723705	0	1	0	0	CorrectCommission	0.879098	0.789409	0	0	6.147059e+01
139.334061	1.346173	city	5	1	0.708883	0.708883	0	1	0	0	CorrectCommission	0.934216	0.715274	1	0	6.150000e+01
140.653702	1.293100	city	8	1	0.662753	0.662753	0	1	0	0	CorrectCommission	1.105758	0.646836	1	0	6.152941e+01
141.966629	1.332763	city	1	1	0.910899	0.910899	0	1	0	0	CorrectCommission	0.182984	0.585625	1	0	6.155882e+01
143.286148	1.306254	city	5	1	0.876356	0.876356	0	1	0	0	CorrectCommission	0.311436	0.532750	1	0	6.158824e+01
144.605682	1.332817	city	3	1	0.836170	0.836170	0	1	0	0	CorrectCommission	0.460874	0.488985	1	0	6.161765e+01
145.925278	1.306379	city	8	1	0.944117	0.944117	0	1	0	0	CorrectCommission	0.059457	0.454963	1	0	6.164706e+01
147.231552	1.306171	city	1	1	0.998945	0.998945	0	1	0	0	CorrectCommission	0.144431	0.431272	1	0	6.167647e+01
148.537766	1.306252	city	4	1	1.102950	1.102950	0	1	0	0	CorrectCommission	0.531192	0.418462	1	0	6.170588e+01
149.830658	1.279528	city	2	1	1.052887	1.052887	0	1	0	0	CorrectCommission	0.345024	0.417036	1	0	6.173529e+01
151.110275	1.279716	city	10	1	0.934765	0.934765	0	1	0	0	CorrectCommission	0.094232	0.427375	1	0	6.176471e+01
152.389923	1.279590	city	7	1	1.037916	1.037916	0	1	0	0	CorrectCommission	0.289351	0.449554	1	0	6.179412e+01
153.682831	1.306222	city	10	1	0.815320	0.815320	0	1	0	0	CorrectCommission	0.538411	0.483210	1	0	6.182353e+01
155.035721	1.399551	city	3	1	1.008274	1.008274	0	1	0	0	CorrectCommission	0.179122	0.527398	1	0	6.185294e+01
156.381851	1.292727	city	6	1	0.886795	0.886795	0	1	0	0	CorrectCommission	0.272617	0.580402	1	0	6.188235e+01
157.674683	1.292931	city	4	1	0.818158	0.818158	0	1	0	0	CorrectCommission	0.527856	0.639719	1	0	6.191176e+01
158.974335	1.306370	city	5	1	0.844471	0.844471	0	1	0	0	CorrectCommission	0.430006	0.702132	1	0	6.194118e+01
160.267242	1.279437	city	1	1	1.184325	1.184325	0	1	0	0	CorrectCommission	0.833800	0.763902	0	0	6.197059e+01
164.119308	6.424688	break	0	1	1.114229	1.114229	0	0	0	0	ThoughtProbe	0.573135	0.821075	0	62	62
167.984695	1.306087	city	7	1	1.074266	1.074266	0	1	0	0	CorrectCommission	0.424527	0.869924	0	0	6.152941e+01
169.284241	1.293010	city	2	1	0.668829	0.668829	0	1	0	0	CorrectCommission	1.083161	0.907415	0	0	6.105882e+01
170.590561	1.319623	city	1	1	1.780968	1.780968	0	1	0	0	CorrectCommission	3.052520	0.931592	0	0	6.058824e+01
171.903458	1.306178	city	8	1	1.662821	1.662821	0	1	0	0	CorrectCommission	2.613170	0.941879	0	0	6.011765e+01
173.209641	1.306185	city	4	1	1.281607	1.281607	0	1	0	0	CorrectCommission	1.195562	0.939203	0	0	5.964706e+01
174.509247	1.293031	city	5	1	0.935689	0.935689	0	1	0	0	CorrectCommission	0.090797	0.925803	0	0	5.917647e+01
175.822144	1.332754	city	4	1	0.720300	0.720300	0	1	0	0	CorrectCommission	0.891758	0.904851	0	0	5.870588e+01
177.135040	1.293061	mountain	10	1	0.923729	0.923729	0	0	1	0	CommissionError	0.135272	0.879864	0	0	5.823529e+01
178.421356	1.279575	city	3	1	0.862898	0.862898	0	1	0	0	CorrectCommission	0.361483	0.854205	0	0	5.776471e+01
179.700882	1.279461	city	8	1	0.838126	0.838126	0	1	0	0	CorrectCommission	0.453601	0.830561	0	0	5.729412e+01
180.987122	1.293030	city	2	1	0.681686	0.681686	0	1	0	0	CorrectCommission	1.035351	0.810607	0	0	5.682353e+01
182.273438	1.279585	city	3	1	0.832892	0.832892	0	1	0	0	CorrectCommission	0.473066	0.794856	0	0	5.635294e+01
183.572998	1.319534	city	5	1	0.737105	0.737105	0	1	0	0	CorrectCommission	0.829268	0.782787	0	0	5.588235e+01
184.879227	1.292924	city	2	1	0.624477	0.624477	0	1	0	0	CorrectCommission	1.248094	0.773041	0	0	5.541176e+01
186.178848	1.306317	city	9	1	0.897992	0.897992	0	1	0	0	CorrectCommission	0.230980	0.763774	0	0	5.494118e+01
187.478348	1.292701	mountain	2	0	0.000000	0.725240	1	0	0	0	CorrectOmission	0.873387	0.753070	1	0	5.447059e+01
188.771225	1.293053	city	6	1	0.552901	0.552901	0	1	0	0	CorrectCommission	1.514260	0.739270	1	0	54
190.077530	1.319552	city	9	1	0.827653	0.827653	0	1	0	0	CorrectCommission	0.492546	0.721272	1	0	5.352941e+01
191.377075	1.279541	city	5	1	0.655471	0.655471	0	1	0	0	CorrectCommission	1.132837	0.698753	1	0	5.305882e+01
192.669907	1.306116	city	1	1	0.727597	0.727597	0	1	0	0	CorrectCommission	0.864625	0.672155	1	0	5.258824e+01
193.962753	1.279572	city	3	1	0.751859	0.751859	0	1	0	0	CorrectCommission	0.774401	0.642644	1	0	5.211765e+01
195.255737	1.306394	city	5	1	0.866379	0.866379	0	1	0	0	CorrectCommission	0.348537	0.611920	1	0	5.164706e+01
196.548706	1.279538	city	1	1	0.760237	0.760237	0	1	0	0	CorrectCommission	0.743246	0.581974	1	0	5.117647e+01
197.834869	1.292788	city	3	1	0.978152	0.978152	0	1	0	0	CorrectCommission	0.067108	0.554762	1	0	5.070588e+01
199.161026	1.359527	city	5	1	0.992359	0.992359	0	1	0	0	CorrectCommission	0.119940	0.531968	1	0	5.023529e+01
200.500641	1.319723	city	2	1	0.784846	0.784846	0	1	0	0	CorrectCommission	0.651734	0.514794	1	0	4.976471e+01
201.806976	1.292953	city	3	1	1.071140	1.071140	0	1	0	0	CorrectCommission	0.412903	0.503853	1	0	4.929412e+01
203.099854	1.292800	city	10	1	0.947283	0.947283	0	1	0	0	CorrectCommission	0.047681	0.499164	1	0	4.882353e+01
204.386093	1.279681	city	4	1	1.126945	1.126945	0	1	0	0	CorrectCommission	0.620422	0.500178	1	0	4.835294e+01
205.665649	1.279409	city	1	1	1.091470	1.091470	0	1	0	0	CorrectCommission	0.488503	0.505950	1	0	4.788235e+01
206.965134	1.319571	city	9	1	0.968009	0.968009	0	1	0	0	CorrectCommission	0.029391	0.515346	1	0	4.741176e+01
208.271454	1.293065	city	8	1	0.781861	0.781861	0	1	0	0	CorrectCommission	0.662835	0.527239	1	0	4.694118e+01
209.597763	1.359565	city	7	1	0.654789	0.654789	0	1	0	0	CorrectCommission	1.135371	0.540644	1	0	4.647059e+01
214.182861	7.810627	break	0	1	0.727847	0.727847	0	0	0	0	ThoughtProbe	0.863692	0.554896	1	46	46
218.734695	1.293030	mountain	7	0	0.000000	1.033962	1	0	0	0	CorrectOmission	0.274648	0.569653	1	0	4.580000e+01
220.040924	1.319427	city	4	1	1.207193	1.207193	0	1	0	0	CorrectCommission	0.918838	0.584860	1	0	4.560000e+01
221.347137	1.293016	city	9	1	0.881600	0.881600	0	1	0	0	CorrectCommission	0.291937	0.600598	1	0	4.540000e+01
222.646790	1.306287	city	1	1	0.788799	0.788799	0	1	0	0	CorrectCommission	0.637032	0.616938	1	0	4.520000e+01
223.959671	1.319451	city	9	1	0.869576	0.869576	0	1	0	0	CorrectCommission	0.336649	0.633830	1	0	45
225.265839	1.292903	mountain	2	0	0.000000	0.900583	1	0	0	0	CorrectOmission	0.221346	0.651001	1	0	4.480000e+01
226.572083	1.319569	city	2	1	0.847369	0.847369	0	1	0	0	CorrectCommission	0.419229	0.667933	1	0	4.460000e+01
227.885025	1.306334	city	10	1	0.675487	0.675487	0	1	0	0	CorrectCommission	1.058404	0.684002	1	0	4.440000e+01
229.177902	1.279412	city	8	1	0.750951	0.750951	0	1	0	0	CorrectCommission	0.777778	0.698648	1	0	4.420000e+01
230.457489	1.279755	city	7	1	0.713569	0.713569	0	1	0	0	CorrectCommission	0.916790	0.711632	1	0	44
231.750427	1.306135	city	2	1	0.664514	0.664514	0	1	0	0	CorrectCommission	1.099210	0.723146	1	0	4.380000e+01
233.056656	1.306329	city	10	1	0.572333	0.572333	0	1	0	0	CorrectCommission	1.442001	0.733920	1	0	4.360000e+01
234.356262	1.292872	city	8	1	0.756175	0.756175	0	1	0	0	CorrectCommission	0.758350	0.745161	1	0	4.340000e+01
235.649170	1.292946	city	5	1	0.906390	0.906390	0	1	0	0	CorrectCommission	0.199751	0.758339	1	0	4.320000e+01
236.935379	1.279480	city	3	1	0.814270	0.814270	0	1	0	0	CorrectCommission	0.542315	0.774868	0	0	43
238.234924	1.319591	city	8	1	0.772544	0.772544	0	1	0	0	CorrectCommission	0.697479	0.795732	0	0	4.280000e+01
239.554535	1.319637	city	4	1	0.822486	0.822486	0	1	0	0	CorrectCommission	0.511761	0.821168	0	0	4.260000e+01
240.867462	1.306218	city	7	1	1.007940	1.007940	0	1	0	0	CorrectCommission	0.177881	0.850458	0	0	4.240000e+01
242.173660	1.306164	city	4	1	0.765266	0.765266	0	1	0	0	CorrectCommission	0.724543	0.881890	0	0	4.220000e+01
243.479904	1.306331	city	7	1	0.823074	0.823074	0	1	0	0	CorrectCommission	0.509575	0.912896	0	0	42
244.779388	1.292638	city	10	1	1.336516	1.336516	0	1	0	0	CorrectCommission	1.399747	0.940453	0	0	4.180000e+01
246.078949	1.306479	city	9	1	1.275478	1.275478	0	1	0	0	CorrectCommission	1.172766	0.961538	0	0	4.160000e+01
247.392014	1.319647	city	10	1	1.023584	1.023584	0	1	0	0	CorrectCommission	0.236058	0.973693	0	0	4.140000e+01
248.704834	1.306015	city	4	1	1.937937	1.937937	0	1	0	0	CorrectCommission	3.636239	0.975439	0	0	4.120000e+01
250.024323	1.332946	city	9	1	1.663183	1.663183	0	1	0	0	CorrectCommission	2.614518	0.966453	0	0	41
251.343933	1.306275	city	5	1	1.107152	1.107152	0	1	0	0	CorrectCommission	0.546820	0.947718	0	0	4.080000e+01
252.663483	1.332819	city	2	1	1.006356	1.006356	0	1	0	0	CorrectCommission	0.171993	0.921237	0	0	4.060000e+01
253.989746	1.319733	city	10	1	0.986326	0.986326	0	1	0	0	CorrectCommission	0.097505	0.889548	0	0	4.040000e+01
255.315979	1.332731	city	1	1	1.106226	1.106226	0	1	0	0	CorrectCommission	0.543375	0.855260	0	0	4.020000e+01
256.622131	1.279566	mountain	10	0	0.000000	1.073896	1	0	0	0	CorrectOmission	0.423150	0.820577	0	0	40
257.921783	1.319738	city	10	1	0.906516	0.906516	0	1	0	0	CorrectCommission	0.199281	0.787019	0	0	3.980000e+01
259.241364	1.319389	city	2	1	0.621267	0.621267	0	1	0	0	CorrectCommission	1.260029	0.755292	1	0	3.960000e+01
260.547577	1.293091	city	4	1	0.697859	0.697859	0	1	0	0	CorrectCommission	0.975208	0.725356	1	0	3.940000e+01
261.847168	1.306064	city	9	1	0.771400	0.771400	0	1	0	0	CorrectCommission	0.701734	0.696740	1	0	3.920000e+01
263.160004	1.319622	city	7	1	0.789518	0.789518	0	1	0	0	CorrectCommission	0.634360	0.668851	1	0	39
264.466248	1.292852	city	1	1	0.613565	0.613565	0	1	0	0	CorrectCommission	1.288670	0.641274	1	0	3.880000e+01
265.765839	1.306312	city	7	1	0.661319	0.661319	0	1	0	0	CorrectCommission	1.111090	0.613989	1	0	3.860000e+01
267.078766	1.319582	city	6	1	0.834789	0.834789	0	1	0	0	CorrectCommission	0.466012	0.587486	1	0	3.840000e+01
268.405060	1.332972	city	1	1	0.914846	0.914846	0	1	0	0	CorrectCommission	0.168305	0.562700	1	0	3.820000e+01
269.071533	8.996882	break	0	1	0.998230	0.998230	0	0	0	0	ThoughtProbe	0.141774	0.540857	1	38	38
278.708282	1.279725	city	6	0	0.000000	1.047352	0	0	0	1	OmissionError	0.324442	0.523209	1	0	3.791176e+01
280.001221	1.306142	city	7	1	1.023593	1.023593	0	1	0	0	CorrectCommission	0.236091	0.510832	1	0	3.782353e+01
281.314056	1.319543	city	4	1	0.888336	0.888336	0	1	0	0	CorrectCommission	0.266886	0.504443	1	0	3.773529e+01
282.620361	1.293075	mountain	9	1	0.785409	0.785409	0	0	1	0	CommissionError	0.649640	0.504308	1	0	3.764706e+01
283.940033	1.346232	city	7	1	0.806516	0.806516	0	1	0	0	CorrectCommission	0.571150	0.510259	1	0	3.755882e+01
285.266144	1.306035	city	10	1	0.814208	0.814208	0	1	0	0	CorrectCommission	0.542547	0.521723	1	0	3.747059e+01
286.579041	1.319736	city	3	1	1.060259	1.060259	0	1	0	0	CorrectCommission	0.372437	0.537897	1	0	3.738235e+01
287.892029	1.306256	city	5	1	0.908956	0.908956	0	1	0	0	CorrectCommission	0.190207	0.557946	1	0	3.729412e+01
289.204926	1.319532	city	1	1	0.782080	0.782080	0	1	0	0	CorrectCommission	0.662019	0.581117	1	0	3.720588e+01
290.524475	1.319533	city	9	1	0.742055	0.742055	0	1	0	0	CorrectCommission	0.810860	0.606844	1	0	3.711765e+01
291.830658	1.292861	city	5	1	0.707873	0.707873	0	1	0	0	CorrectCommission	0.937970	0.634826	1	0	3.702941e+01
293.130157	1.306158	city	4	1	0.834913	0.834913	0	1	0	0	CorrectCommission	0.465551	0.665012	1	0	3.694118e+01
294.423126	1.279730	city	8	1	0.719956	0.719956	0	1	0	0	CorrectCommission	0.893039	0.697527	1	0	3.685294e+01
295.722748	1.319562	city	10	1	0.690554	0.690554	0	1	0	0	CorrectCommission	1.002373	0.732479	1	0	3.676471e+01
297.022247	1.279443	mountain	8	0	0.000000	0.919017	1	0	0	0	CorrectOmission	0.152795	0.769840	0	0	3.667647e+01
298.308441	1.292900	city	9	1	1.069146	1.069146	0	1	0	0	CorrectCommission	0.405485	0.809306	0	0	3.658824e+01
299.594666	1.279562	city	2	1	0.804743	0.804743	0	1	0	0	CorrectCommission	0.577743	0.850152	0	0	3.650000e+01
300.920929	1.372972	city	1	1	0.772643	0.772643	0	1	0	0	CorrectCommission	0.697110	0.891205	0	0	3.641176e+01
302.247192	1.279552	city	9	1	0.554018	0.554018	0	1	0	0	CorrectCommission	1.510105	0.930936	0	0	3.632353e+01
303.573395	1.372879	city	3	1	0.667009	0.667009	0	1	0	0	CorrectCommission	1.089929	0.967560	0	0	3.623529e+01
304.939667	1.359616	city	2	1	0.715844	0.715844	0	1	0	0	CorrectCommission	0.908327	0.999271	0	0	3.614706e+01
306.272552	1.306178	city	5	1	0.620112	0.620112	0	1	0	0	CorrectCommission	1.264326	1.024408	0	0	3.605882e+01
307.572144	1.292998	city	6	1	0.538832	0.538832	0	1	0	0	CorrectCommission	1.566577	1.041668	0	0	3.597059e+01
308.865051	1.292819	city	5	1	0.543373	0.543373	0	1	0	0	CorrectCommission	1.549691	1.050201	0	0	3.588235e+01
310.164642	1.306357	city	10	1	0.602004	0.602004	0	1	0	0	CorrectCommission	1.331664	1.049724	0	0	3.579412e+01
311.457581	1.279553	city	8	1	0.808999	0.808999	0	1	0	0	CorrectCommission	0.561914	1.040544	0	0	3.570588e+01
312.750488	1.306262	city	4	1	0.717557	0.717557	0	1	0	0	CorrectCommission	0.901959	1.023545	0	0	3.561765e+01
314.056702	1.306115	city	1	1	0.720217	0.720217	0	1	0	0	CorrectCommission	0.892068	1.000101	0	0	3.552941e+01
315.362915	1.306360	city	5	1	0.708049	0.708049	0	1	0	0	CorrectCommission	0.937314	0.972040	0	0	3.544118e+01
316.682465	1.332719	city	9	1	0.610154	0.610154	0	1	0	0	CorrectCommission	1.301355	0.941547	0	0	3.535294e+01
318.002014	1.306370	city	10	1	0.501070	0.501070	0	1	0	0	CorrectCommission	1.707003	0.911023	0	0	3.526471e+01
319.301575	1.292762	city	1	1	0.655215	0.655215	0	1	0	0	CorrectCommission	1.133787	0.882905	0	0	3.517647e+01
320.601166	1.306412	city	8	1	0.834598	0.834598	0	1	0	0	CorrectCommission	0.466720	0.859450	0	0	3.508824e+01
324.593201	6.677649	break	0	1	0.911087	0.911087	0	0	0	0	ThoughtProbe	0.182283	0.842462	0	35	35
328.585205	1.306383	city	8	1	1.047762	1.047762	0	1	0	0	CorrectCommission	0.325967	0.833026	0	0	3.545652e+01
329.884857	1.292898	city	9	0	0.000000	1.057912	0	0	0	1	OmissionError	0.363710	0.831304	0	0	3.591304e+01
331.184418	1.306244	city	1	1	0.930444	0.930444	0	1	0	0	CorrectCommission	0.110301	0.836515	0	0	3.636957e+01
332.490662	1.306240	city	10	1	0.654267	0.654267	0	1	0	0	CorrectCommission	1.137314	0.846992	0	0	3.682609e+01
333.796906	1.306253	city	9	1	0.781174	0.781174	0	1	0	0	CorrectCommission	0.665386	0.860396	0	0	3.728261e+01
335.116486	1.332876	city	3	1	0.650217	0.650217	0	1	0	0	CorrectCommission	1.152375	0.874120	0	0	3.773913e+01
336.429352	1.292875	city	1	0	0.000000	1.245863	0	0	0	1	OmissionError	1.062639	0.885617	0	0	3.819565e+01
337.715515	1.279453	city	2	1	1.700227	1.700227	0	1	0	0	CorrectCommission	2.752271	0.892786	0	0	3.865217e+01
339.021790	1.333074	city	6	1	1.145424	1.145424	0	1	0	0	CorrectCommission	0.689139	0.894168	0	0	3.910870e+01
340.334747	1.292891	mountain	5	0	0.000000	1.050601	1	0	0	0	CorrectOmission	0.336522	0.889168	0	0	3.956522e+01
341.620911	1.279413	mountain	8	0	0.000000	1.180116	1	0	0	0	CorrectOmission	0.818146	0.877869	0	0	4.002174e+01
342.907074	1.292912	city	9	1	1.298327	1.298327	0	1	0	0	CorrectCommission	1.257736	0.860910	0	0	4.047826e+01
344.200073	1.293108	city	7	1	1.169593	1.169593	0	1	0	0	CorrectCommission	0.779015	0.839277	0	0	4.093478e+01
345.493073	1.292870	city	2	1	1.051168	1.051168	0	1	0	0	CorrectCommission	0.338631	0.814106	0	0	4.139130e+01
346.792664	1.306283	city	8	1	0.821127	0.821127	0	1	0	0	CorrectCommission	0.516815	0.786478	0	0	4.184783e+01
348.098877	1.306190	city	3	1	0.712616	0.712616	0	1	0	0	CorrectCommission	0.920333	0.757303	1	0	4.230435e+01
349.418335	1.332728	city	5	1	0.684821	0.684821	0	1	0	0	CorrectCommission	1.023693	0.727327	1	0	4.276087e+01
350.731171	1.292918	mountain	1	0	0.000000	0.728116	1	0	0	0	CorrectOmission	0.862692	0.697192	1	0	4.321739e+01
352.064087	1.372896	city	7	1	0.768484	0.768484	0	1	0	0	CorrectCommission	0.712579	0.667485	1	0	4.367391e+01
353.410370	1.319708	city	2	1	0.731905	0.731905	0	1	0	0	CorrectCommission	0.848604	0.638825	1	0	4.413043e+01
354.729950	1.319440	city	9	1	0.902723	0.902723	0	1	0	0	CorrectCommission	0.213385	0.611878	1	0	4.458696e+01
356.029510	1.279708	city	10	1	0.752128	0.752128	0	1	0	0	CorrectCommission	0.773401	0.587358	1	0	4.504348e+01
357.335815	1.332902	city	1	1	0.850464	0.850464	0	1	0	0	CorrectCommission	0.407720	0.565911	1	0	4.550000e+01
358.661987	1.319390	city	8	1	0.866576	0.866576	0	1	0	0	CorrectCommission	0.347806	0.548076	1	0	4.595652e+01
359.988129	1.332917	city	6	1	0.848318	0.848318	0	1	0	0	CorrectCommission	0.415700	0.534176	1	0	4.641304e+01
361.321106	1.333061	city	7	1	0.851453	0.851453	0	1	0	0	CorrectCommission	0.404042	0.524215	1	0	4.686957e+01
362.654022	1.332772	city	6	1	0.948233	0.948233	0	1	0	0	CorrectCommission	0.044151	0.517909	1	0	4.732609e+01
363.973572	1.306280	city	10	1	0.898319	0.898319	0	1	0	0	CorrectCommission	0.229764	0.514705	1	0	4.778261e+01
365.273163	1.292895	city	6	1	1.369628	1.369628	0	1	0	0	CorrectCommission	1.522880	0.513847	1	0	4.823913e+01
366.572662	1.306134	city	4	1	1.108814	1.108814	0	1	0	0	CorrectCommission	0.552999	0.514447	1	0	4.869565e+01
367.872192	1.292917	city	9	1	1.014527	1.014527	0	1	0	0	CorrectCommission	0.202376	0.515734	1	0	4.915217e+01
369.191833	1.346361	city	10	1	1.051413	1.051413	0	1	0	0	CorrectCommission	0.339542	0.517094	1	0	4.960870e+01
370.504761	1.279490	mountain	8	0	0.000000	1.155913	1	0	0	0	CorrectOmission	0.728145	0.518126	1	0	5.006522e+01
371.797760	1.306508	city	7	1	1.194975	1.194975	0	1	0	0	CorrectCommission	0.873402	0.518691	1	0	5.052174e+01
373.097382	1.292747	city	8	1	1.035543	1.035543	0	1	0	0	CorrectCommission	0.280529	0.518984	1	0	5.097826e+01
374.396881	1.306266	city	1	1	0.909170	0.909170	0	1	0	0	CorrectCommission	0.189411	0.519500	1	0	5.143478e+01
375.696472	1.292906	city	5	1	1.164963	1.164963	0	1	0	0	CorrectCommission	0.761800	0.520966	1	0	5.189130e+01
376.989349	1.292855	city	3	1	0.816613	0.816613	0	1	0	0	CorrectCommission	0.533601	0.524285	1	0	5.234783e+01
378.308838	1.346125	city	1	1	0.784696	0.784696	0	1	0	0	CorrectCommission	0.652289	0.530526	1	0	5.280435e+01
379.628418	1.293028	city	3	1	0.807563	0.807563	0	1	0	0	CorrectCommission	0.567256	0.540711	1	0	5.326087e+01
380.941376	1.332908	city	1	1	0.848179	0.848179	0	1	0	0	CorrectCommission	0.416216	0.555766	1	0	5.371739e+01
382.274231	1.332800	city	3	1	0.967135	0.967135	0	1	0	0	CorrectCommission	0.026142	0.576361	1	0	5.417391e+01
383.600616	1.319918	city	8	1	0.840861	0.840861	0	1	0	0	CorrectCommission	0.443431	0.602826	1	0	5.463043e+01
384.906921	1.292694	city	1	1	0.718244	0.718244	0	1	0	0	CorrectCommission	0.899405	0.635002	1	0	5.508696e+01
386.199677	1.292854	city	5	1	0.931075	0.931075	0	1	0	0	CorrectCommission	0.107955	0.672205	1	0	5.554348e+01
390.104950	6.517699	break	0	0	0.000000	1.179907	0	0	0	0	ThoughtProbe	0.817371	0.713261	1	56	56
394.036987	1.346351	city	6	1	1.281189	1.281189	0	1	0	0	CorrectCommission	1.194006	0.756500	1	0	5.570000e+01
395.369965	1.319599	city	3	1	1.051370	1.051370	0	1	0	0	CorrectCommission	0.339382	0.799926	0	0	5.540000e+01
396.689545	1.319586	city	6	1	0.890784	0.890784	0	1	0	0	CorrectCommission	0.257785	0.841403	0	0	5.510000e+01
398.015778	1.332878	city	2	1	0.741149	0.741149	0	1	0	0	CorrectCommission	0.814229	0.878825	0	0	5.480000e+01
399.328674	1.292924	mountain	7	1	1.578431	1.578431	0	0	1	0	CommissionError	2.299350	0.910305	0	0	5.450000e+01
400.641602	1.332883	city	6	0	0.000000	1.390270	0	0	0	1	OmissionError	1.599641	0.934369	0	0	5.420000e+01
401.987793	1.359496	city	7	1	0.834030	0.834030	0	1	0	0	CorrectCommission	0.468833	0.950113	0	0	5.390000e+01
403.333923	1.332775	city	1	1	0.567076	0.567076	0	1	0	0	CorrectCommission	1.461549	0.957201	0	0	5.360000e+01
404.640106	1.279620	mountain	3	0	0.000000	0.671196	1	0	0	0	CorrectOmission	1.074360	0.955770	0	0	5.330000e+01
405.939758	1.319683	city	10	1	0.869437	0.869437	0	1	0	0	CorrectCommission	0.337168	0.946400	0	0	53
407.259338	1.319458	city	4	1	0.884844	0.884844	0	1	0	0	CorrectCommission	0.279873	0.929968	0	0	5.270000e+01
408.558929	1.279719	city	5	1	1.758137	1.758137	0	1	0	0	CorrectCommission	2.967620	0.907533	0	0	5.240000e+01
409.878479	1.359393	city	2	1	1.007748	1.007748	0	1	0	0	CorrectCommission	0.177168	0.880187	0	0	5.210000e+01
411.264679	1.413029	city	8	1	1.032583	1.032583	0	1	0	0	CorrectCommission	0.269522	0.849185	0	0	5.180000e+01
412.624237	1.306075	city	6	1	0.849961	0.849961	0	1	0	0	CorrectCommission	0.409592	0.815798	0	0	5.150000e+01
413.923798	1.293046	city	3	1	0.592241	0.592241	0	1	0	0	CorrectCommission	1.367967	0.781367	0	0	5.120000e+01
415.236725	1.332792	city	4	1	0.570793	0.570793	0	1	0	0	CorrectCommission	1.447724	0.747310	1	0	5.090000e+01
416.562958	1.319681	city	5	1	0.768593	0.768593	0	1	0	0	CorrectCommission	0.712173	0.715129	1	0	5.060000e+01
417.882507	1.319406	city	8	1	0.816845	0.816845	0	1	0	0	CorrectCommission	0.532738	0.686324	1	0	5.030000e+01
419.195312	1.306250	city	5	1	0.889305	0.889305	0	1	0	0	CorrectCommission	0.263286	0.662214	1	0	50
420.508301	1.319705	city	4	1	1.121890	1.121890	0	1	0	0	CorrectCommission	0.601623	0.643807	1	0	4.970000e+01
421.834595	1.332883	city	3	1	1.017327	1.017327	0	1	0	0	CorrectCommission	0.212788	0.631630	1	0	4.940000e+01
423.167419	1.332790	city	6	1	1.026304	1.026304	0	1	0	0	CorrectCommission	0.246171	0.625601	1	0	4.910000e+01
424.486938	1.306248	city	8	1	0.895587	0.895587	0	1	0	0	CorrectCommission	0.239924	0.625016	1	0	4.880000e+01
425.806519	1.332911	city	7	1	0.888106	0.888106	0	1	0	0	CorrectCommission	0.267744	0.628648	1	0	4.850000e+01
427.139465	1.332950	city	1	1	0.715320	0.715320	0	1	0	0	CorrectCommission	0.910278	0.634935	1	0	4.820000e+01
428.479065	1.346280	mountain	1	1	0.663940	0.663940	0	0	1	0	CommissionError	1.101345	0.642219	1	0	4.790000e+01
429.818665	1.332888	city	6	1	0.614943	0.614943	0	1	0	0	CorrectCommission	1.283545	0.649051	1	0	4.760000e+01
431.144897	1.319557	city	10	1	0.666917	0.666917	0	1	0	0	CorrectCommission	1.090273	0.654423	1	0	4.730000e+01
432.471039	1.332734	city	7	1	0.969588	0.969588	0	1	0	0	CorrectCommission	0.035263	0.657874	1	0	47
433.790527	1.306245	city	1	1	0.811434	0.811434	0	1	0	0	CorrectCommission	0.552862	0.659561	1	0	4.670000e+01
435.110077	1.332899	city	6	1	1.242006	1.242006	0	1	0	0	CorrectCommission	1.048295	0.660113	1	0	4.640000e+01
436.443024	1.332939	city	8	1	0.845423	0.845423	0	1	0	0	CorrectCommission	0.426467	0.660479	1	0	4.610000e+01
437.789246	1.359513	city	10	1	0.618777	0.618777	0	1	0	0	CorrectCommission	1.269291	0.661679	1	0	4.580000e+01
439.148834	1.359681	city	8	1	0.973089	0.973089	0	1	0	0	CorrectCommission	0.048281	0.664670	1	0	4.550000e+01
440.481812	1.306276	city	7	1	0.988765	0.988765	0	1	0	0	CorrectCommission	0.106575	0.670244	1	0	4.520000e+01
441.788086	1.306267	city	10	1	0.905444	0.905444	0	1	0	0	CorrectCommission	0.203269	0.678898	1	0	4.490000e+01
443.094330	1.306200	city	2	1	0.742322	0.742322	0	1	0	0	CorrectCommission	0.809867	0.690886	1	0	4.460000e+01
444.413849	1.332872	city	1	1	0.725179	0.725179	0	1	0	0	CorrectCommission	0.873614	0.706332	1	0	4.430000e+01
448.732422	7.304273	break	0	1	1.079305	1.079305	0	0	0	0	ThoughtProbe	0.443265	0.725360	1	44	44
453.024353	1.279567	city	1	1	1.518873	1.518873	0	1	0	0	CorrectCommission	2.077873	0.748183	1	0	4.393478e+01
454.350494	1.372741	city	3	1	1.267011	1.267011	0	1	0	0	CorrectCommission	1.141284	0.775055	0	0	4.386957e+01
455.703400	1.333063	city	2	1	1.034391	1.034391	0	1	0	0	CorrectCommission	0.276244	0.806259	0	0	4.380435e+01
457.029633	1.319381	city	4	1	0.864747	0.864747	0	1	0	0	CorrectCommission	0.354608	0.841843	0	0	4.373913e+01
458.375824	1.373028	city	7	1	1.107145	1.107145	0	1	0	0	CorrectCommission	0.546791	0.881364	0	0	4.367391e+01
459.708710	1.292759	mountain	4	0	0.000000	1.129697	1	0	0	0	CorrectOmission	0.630655	0.923719	0	0	4.360870e+01
461.008301	1.306412	city	7	1	1.028221	1.028221	0	1	0	0	CorrectCommission	0.253301	0.967054	0	0	4.354348e+01
462.307953	1.292899	city	4	1	0.898537	0.898537	0	1	0	0	CorrectCommission	0.228952	1.008857	0	0	4.347826e+01
463.614166	1.319485	city	5	1	0.770314	0.770314	0	1	0	0	CorrectCommission	0.705774	1.046241	0	0	4.341304e+01
464.953644	1.359489	city	9	1	1.704599	1.704599	0	1	0	0	CorrectCommission	2.768530	1.076317	0	0	4.334783e+01
466.293213	1.319682	city	4	1	1.840226	1.840226	0	1	0	0	CorrectCommission	3.272881	1.096595	0	0	4.328261e+01
467.619476	1.332821	mountain	4	0	0.000000	1.456085	1	0	0	0	CorrectOmission	1.844386	1.105460	0	0	4.321739e+01
468.939056	1.306359	city	7	1	1.003328	1.003328	0	1	0	0	CorrectCommission	0.160730	1.102379	0	0	4.315217e+01
470.245270	1.306069	city	1	1	0.933105	0.933105	0	1	0	0	CorrectCommission	0.100406	1.087922	0	0	4.308696e+01
471.538177	1.279742	city	4	1	1.423475	1.423475	0	1	0	0	CorrectCommission	1.723120	1.063646	0	0	4.302174e+01
472.824463	1.292797	mountain	7	0	0.000000	1.370201	1	0	0	0	CorrectOmission	1.525011	1.031810	0	0	4.295652e+01
474.130707	1.319673	city	8	1	1.173256	1.173256	0	1	0	0	CorrectCommission	0.792638	0.995155	0	0	4.289130e+01
475.450317	1.319556	city	1	1	1.232614	1.232614	0	1	0	0	CorrectCommission	1.013370	0.956564	0	0	4.282609e+01
476.763184	1.306214	city	6	0	0.000000	0.969244	0	0	0	1	OmissionError	0.033985	0.918815	0	0	4.276087e+01
478.069427	1.306227	city	1	1	0.817632	0.817632	0	1	0	0	CorrectCommission	0.529812	0.884412	0	0	4.269565e+01
479.362244	1.279440	city	7	1	1.212261	1.212261	0	1	0	0	CorrectCommission	0.937683	0.855486	0	0	4.263043e+01
480.648499	1.293071	city	1	1	1.449299	1.449299	0	1	0	0	CorrectCommission	1.819153	0.833793	0	0	4.256522e+01
481.968231	1.346413	city	8	1	1.279106	1.279106	0	1	0	0	CorrectCommission	1.186258	0.820653	0	0	4.250000e+01
483.301056	1.319228	city	5	1	0.964564	0.964564	0	1	0	0	CorrectCommission	0.016580	0.817011	0	0	4.243478e+01
484.613892	1.306409	city	10	1	0.866231	0.866231	0	1	0	0	CorrectCommission	0.349089	0.823399	0	0	4.236957e+01
485.920258	1.306327	city	6	1	0.928786	0.928786	0	1	0	0	CorrectCommission	0.116466	0.839840	0	0	4.230435e+01
487.239807	1.332796	city	7	1	0.971090	0.971090	0	1	0	0	CorrectCommission	0.040847	0.865855	0	0	4.223913e+01
488.559265	1.306090	city	2	1	0.570719	0.570719	0	1	0	0	CorrectCommission	1.448000	0.900418	0	0	4.217391e+01
489.885498	1.346375	city	7	1	0.596545	0.596545	0	1	0	0	CorrectCommission	1.351964	0.941937	0	0	4.210870e+01
491.231720	1.346061	city	1	1	0.795933	0.795933	0	1	0	0	CorrectCommission	0.610503	0.988334	0	0	4.204348e+01
492.564514	1.319563	city	9	1	0.630675	0.630675	0	1	0	0	CorrectCommission	1.225046	1.037070	0	0	4.197826e+01
493.897491	1.346370	city	8	1	0.536692	0.536692	0	1	0	0	CorrectCommission	1.574536	1.085140	0	0	4.191304e+01
495.243805	1.346241	mountain	5	1	0.653635	0.653635	0	0	1	0	CommissionError	1.139665	1.129180	0	0	4.184783e+01
496.569977	1.306110	city	3	1	0.679026	0.679026	0	1	0	0	CorrectCommission	1.045241	1.165569	0	0	4.178261e+01
497.902863	1.359668	city	6	1	0.715949	0.715949	0	1	0	0	CorrectCommission	0.907940	1.190508	0	0	4.171739e+01
499.249054	1.332743	city	9	1	0.772461	0.772461	0	1	0	0	CorrectCommission	0.697788	1.200232	0	0	4.165217e+01
500.588593	1.346348	city	3	1	0.681528	0.681528	0	1	0	0	CorrectCommission	1.035939	1.191217	0	0	4.158696e+01
501.915985	1.308414	city	6	1	1.758724	1.758724	0	1	0	0	CorrectCommission	2.969803	1.160501	0	0	4.152174e+01
503.228912	1.317414	city	7	1	1.498101	1.498101	0	1	0	0	CorrectCommission	2.000630	1.105990	0	0	4.145652e+01
504.534058	1.292929	city	2	1	1.511109	1.511109	0	1	0	0	CorrectCommission	2.049004	1.026787	0	0	4.139130e+01
505.833557	1.306049	city	5	1	1.416067	1.416067	0	1	0	0	CorrectCommission	1.695572	0.923296	0	0	4.132609e+01
507.226349	1.479523	city	7	1	1.222592	1.222592	0	1	0	0	CorrectCommission	0.976102	0.797267	0	0	4.126087e+01
508.639221	1.346223	city	2	1	0.887720	0.887720	0	1	0	0	CorrectCommission	0.269178	0.651701	1	0	4.119565e+01
509.978882	1.333075	city	7	1	0.991051	0.991051	0	1	0	0	CorrectCommission	0.115078	0.490599	1	0	4.113043e+01
511.291840	1.292882	city	8	1	0.994583	0.994583	0	1	0	0	CorrectCommission	0.128212	0.318721	1	0	4.106522e+01
515.530518	7.184517	break	0	0	0.000000	0.998115	0	0	0	0	ThoughtProbe	0.141345	0.141345	1	41	41
