onset	duration	trial_type	image_type	Press	ReactionTime	ReactionTime_Interpolated	CorrectOmission	CorrectCommission	CommissionError	OmissionError	response_type	nonsmoothVarianceTimeCourse	VarianceTimeCourse	In_the_Zone	ThoughtProbe	ThoughtProbe_Interpolated
0.652851	1.279502	city	4	1	1.569708	1.569708	0	1	0	0	CorrectCommission	1.277324	1.277324	0	0	29
1.932471	1.279739	city	8	1	1.134402	1.134402	0	1	0	0	CorrectCommission	0.108305	1.208281	0	0	29
3.212125	1.279570	mountain	2	0	0.000000	0.665328	1	0	0	0	CorrectOmission	1.601419	1.140362	0	0	29
4.491632	1.279444	city	8	1	0.484763	0.484763	0	1	0	0	CorrectCommission	2.176177	1.074766	0	0	29
5.771214	1.279719	city	2	1	0.914983	0.914983	0	1	0	0	CorrectCommission	0.806739	1.012916	0	0	29
7.050877	1.279606	city	7	1	0.702886	0.702886	0	1	0	0	CorrectCommission	1.481867	0.956460	0	0	29
8.330320	1.279281	city	4	1	1.230956	1.230956	0	1	0	0	CorrectCommission	0.199038	0.907071	0	0	29
9.609882	1.279843	city	1	1	1.090960	1.090960	0	1	0	0	CorrectCommission	0.246585	0.866362	0	0	29
10.889606	1.279605	city	9	1	1.183219	1.183219	0	1	0	0	CorrectCommission	0.047085	0.835593	0	0	29
12.169153	1.279490	city	4	1	1.017665	1.017665	0	1	0	0	CorrectCommission	0.479890	0.815510	1	0	29
13.448667	1.279536	city	1	1	0.967308	0.967308	0	1	0	0	CorrectCommission	0.640182	0.806189	1	0	29
14.728293	1.279719	mountain	10	1	0.698105	0.698105	0	0	1	0	CommissionError	1.497085	0.807026	1	0	29
16.007933	1.279560	city	1	1	1.124523	1.124523	0	1	0	0	CorrectCommission	0.139749	0.816750	1	0	29
17.287498	1.279572	city	9	1	0.942735	0.942735	0	1	0	0	CorrectCommission	0.718403	0.833618	1	0	29
18.566990	1.279412	city	8	1	1.658045	1.658045	0	1	0	0	CorrectCommission	1.558508	0.855485	0	0	29
19.846581	1.279769	city	4	1	1.407152	1.407152	0	1	0	0	CorrectCommission	0.759888	0.880055	0	0	29
21.126249	1.279566	city	1	1	1.024953	1.024953	0	1	0	0	CorrectCommission	0.456693	0.905110	0	0	29
22.405746	1.279429	city	10	1	0.820964	0.820964	0	1	0	0	CorrectCommission	1.106013	0.928631	0	0	29
23.685289	1.279656	city	4	1	1.550833	1.550833	0	1	0	0	CorrectCommission	1.217242	0.948912	0	0	29
24.964861	1.279490	city	2	1	1.337975	1.337975	0	1	0	0	CorrectCommission	0.539691	0.964779	0	0	29
26.244436	1.279661	city	6	1	0.972558	0.972558	0	1	0	0	CorrectCommission	0.623471	0.975654	0	0	29
27.524097	1.279661	city	10	1	0.489650	0.489650	0	1	0	0	CorrectCommission	2.160620	0.981530	0	0	29
28.803715	1.279574	city	9	1	0.596708	0.596708	0	1	0	0	CorrectCommission	1.819844	0.982990	0	0	29
30.083254	1.279501	city	10	1	1.527942	1.527942	0	1	0	0	CorrectCommission	1.144376	0.981131	0	0	29
31.369505	1.293001	city	7	1	1.383634	1.383634	0	1	0	0	CorrectCommission	0.685028	0.977295	0	0	29
32.655788	1.279568	city	9	1	1.313800	1.313800	0	1	0	0	CorrectCommission	0.462740	0.972828	0	0	29
33.942032	1.292921	city	2	1	1.390352	1.390352	0	1	0	0	CorrectCommission	0.706412	0.968820	0	0	29
35.234852	1.292716	city	4	1	1.156490	1.156490	0	1	0	0	CorrectCommission	0.037996	0.965887	0	0	29
36.527760	1.293098	city	1	1	0.977565	0.977565	0	1	0	0	CorrectCommission	0.607533	0.964129	0	0	29
37.814098	1.279581	mountain	9	1	0.651107	0.651107	0	0	1	0	CommissionError	1.646687	0.963057	0	0	29
39.106995	1.306210	city	1	1	0.844329	0.844329	0	1	0	0	CorrectCommission	1.031639	0.961812	0	0	29
40.419876	1.319558	city	8	1	1.662059	1.662059	0	1	0	0	CorrectCommission	1.571284	0.959412	0	0	29
41.726120	1.292925	city	9	0	0.000000	1.670847	0	0	0	1	OmissionError	1.599258	0.954945	0	0	29
43.019001	1.292839	city	5	1	1.316471	1.316471	0	1	0	0	CorrectCommission	0.471241	0.947805	0	0	29
44.318508	1.306173	city	4	1	1.044708	1.044708	0	1	0	0	CorrectCommission	0.393810	0.937859	0	0	29
45.638031	1.332877	city	3	1	1.733378	1.733378	0	1	0	0	CorrectCommission	1.798301	0.925395	0	0	29
46.944267	1.279591	city	8	1	1.497634	1.497634	0	1	0	0	CorrectCommission	1.047903	0.911039	0	0	29
48.230595	1.293065	city	1	1	1.164920	1.164920	0	1	0	0	CorrectCommission	0.011161	0.895717	0	0	29
49.523571	1.292890	city	6	1	0.838838	0.838838	0	1	0	0	CorrectCommission	1.049116	0.880434	0	0	29
53.015747	5.691458	break	0	1	0.716860	0.716860	0	0	0	0	ThoughtProbe	1.437386	0.866058	0	29	29
56.501266	1.279582	city	2	1	1.089930	1.089930	0	1	0	0	CorrectCommission	0.249862	0.853238	0	0	2.897826e+01
57.780842	1.279572	city	4	1	0.913187	0.913187	0	1	0	0	CorrectCommission	0.812457	0.842384	0	0	2.895652e+01
59.060429	1.279601	city	1	1	0.965223	0.965223	0	1	0	0	CorrectCommission	0.646821	0.833592	1	0	2.893478e+01
60.339958	1.279460	city	4	1	1.028530	1.028530	0	1	0	0	CorrectCommission	0.445308	0.826742	1	0	2.891304e+01
61.619534	1.279684	city	9	1	0.763671	0.763671	0	1	0	0	CorrectCommission	1.288383	0.821633	1	0	2.889130e+01
62.899239	1.279726	city	7	1	1.051157	1.051157	0	1	0	0	CorrectCommission	0.373284	0.818084	1	0	2.886957e+01
64.178818	1.279431	city	2	1	0.753825	0.753825	0	1	0	0	CorrectCommission	1.319723	0.816107	1	0	2.884783e+01
65.458237	1.279417	mountain	10	1	0.537877	0.537877	0	0	1	0	CommissionError	2.007110	0.815877	1	0	2.882609e+01
66.737770	1.279647	city	1	1	1.183064	1.183064	0	1	0	0	CorrectCommission	0.046591	0.817749	1	0	2.880435e+01
68.017441	1.279693	mountain	6	1	1.015334	1.015334	0	0	1	0	CommissionError	0.487312	0.822226	1	0	2.878261e+01
69.297035	1.279489	city	10	1	1.444107	1.444107	0	1	0	0	CorrectCommission	0.877521	0.829723	1	0	2.876087e+01
70.576607	1.279662	mountain	4	1	1.124076	1.124076	0	0	1	0	CommissionError	0.141174	0.840479	0	0	2.873913e+01
71.856224	1.279568	city	8	1	0.910615	0.910615	0	1	0	0	CorrectCommission	0.820643	0.854498	0	0	2.871739e+01
73.135803	1.279592	city	2	1	0.911190	0.911190	0	1	0	0	CorrectCommission	0.818812	0.871442	0	0	2.869565e+01
74.415390	1.279583	city	4	1	1.335126	1.335126	0	1	0	0	CorrectCommission	0.530623	0.890733	0	0	2.867391e+01
75.694969	1.279578	city	6	1	0.909435	0.909435	0	1	0	0	CorrectCommission	0.824400	0.911632	0	0	2.865217e+01
76.974541	1.279557	city	3	1	0.642244	0.642244	0	1	0	0	CorrectCommission	1.674898	0.933392	0	0	2.863043e+01
78.254120	1.279603	city	7	1	0.663135	0.663135	0	1	0	0	CorrectCommission	1.608400	0.955289	0	0	2.860870e+01
79.533699	1.279566	city	3	1	1.657286	1.657286	0	1	0	0	CorrectCommission	1.556092	0.976738	0	0	2.858696e+01
80.813271	1.279564	city	2	1	1.337613	1.337613	0	1	0	0	CorrectCommission	0.538537	0.997273	0	0	2.856522e+01
82.092766	1.279427	city	4	1	1.390585	1.390585	0	1	0	0	CorrectCommission	0.707154	1.016478	0	0	2.854348e+01
83.372345	1.279736	city	2	1	1.230852	1.230852	0	1	0	0	CorrectCommission	0.198706	1.033867	0	0	2.852174e+01
84.651962	1.279509	city	4	1	1.017590	1.017590	0	1	0	0	CorrectCommission	0.480129	1.048932	0	0	2.850000e+01
85.931541	1.279642	city	5	1	0.858053	0.858053	0	1	0	0	CorrectCommission	0.987953	1.061097	0	0	2.847826e+01
87.211090	1.279451	city	8	1	0.751671	0.751671	0	1	0	0	CorrectCommission	1.326580	1.069856	0	0	2.845652e+01
88.490669	1.279718	city	9	1	0.482767	0.482767	0	1	0	0	CorrectCommission	2.182531	1.074926	0	0	2.843478e+01
89.770332	1.279599	city	4	1	0.484689	0.484689	0	1	0	0	CorrectCommission	2.176412	1.076327	0	0	2.841304e+01
91.049911	1.279565	city	2	1	1.725255	1.725255	0	1	0	0	CorrectCommission	1.772446	1.074469	0	0	2.839130e+01
92.329445	1.279500	city	9	1	1.390904	1.390904	0	1	0	0	CorrectCommission	0.708169	1.070032	0	0	2.836957e+01
93.608955	1.279515	city	5	1	1.124442	1.124442	0	1	0	0	CorrectCommission	0.140008	1.063762	0	0	2.834783e+01
94.888573	1.279721	city	6	1	1.232919	1.232919	0	1	0	0	CorrectCommission	0.205287	1.056246	0	0	2.832609e+01
96.168221	1.279576	city	4	1	1.016458	1.016458	0	1	0	0	CorrectCommission	0.483735	1.047681	0	0	2.830435e+01
97.447800	1.279582	city	3	1	0.983547	0.983547	0	1	0	0	CorrectCommission	0.588492	1.037781	0	0	2.828261e+01
98.727379	1.279581	city	5	1	1.710856	1.710856	0	1	0	0	CorrectCommission	1.726611	1.025859	0	0	2.826087e+01
100.006958	1.279574	city	3	1	1.467623	1.467623	0	1	0	0	CorrectCommission	0.952374	1.010992	0	0	2.823913e+01
101.286499	1.279506	mountain	1	1	2.040887	2.040887	0	0	1	0	CommissionError	2.777138	0.992359	0	0	2.821739e+01
102.566002	1.279501	city	2	1	1.723349	1.723349	0	1	0	0	CorrectCommission	1.766380	0.969416	0	0	2.819565e+01
103.845627	1.279744	city	9	1	1.290388	1.290388	0	1	0	0	CorrectCommission	0.388215	0.942201	0	0	2.817391e+01
105.125282	1.279577	city	6	1	1.141818	1.141818	0	1	0	0	CorrectCommission	0.084698	0.911345	0	0	2.815217e+01
106.404816	1.279492	city	7	1	0.964669	0.964669	0	1	0	0	CorrectCommission	0.648584	0.877989	0	0	2.813043e+01
107.684402	1.279668	city	2	1	0.964163	0.964163	0	1	0	0	CorrectCommission	0.650193	0.843627	0	0	2.810870e+01
108.964020	1.279579	city	8	1	0.697670	0.697670	0	1	0	0	CorrectCommission	1.498471	0.809921	1	0	2.808696e+01
110.243599	1.279583	city	10	1	1.494608	1.494608	0	1	0	0	CorrectCommission	1.038271	0.778399	1	0	2.806522e+01
111.523109	1.279423	city	6	1	1.337516	1.337516	0	1	0	0	CorrectCommission	0.538230	0.750309	1	0	2.804348e+01
112.802666	1.279699	city	2	1	1.125386	1.125386	0	1	0	0	CorrectCommission	0.137002	0.726432	1	0	2.802174e+01
115.821747	4.758465	break	0	1	1.236932	1.236932	0	0	0	0	ThoughtProbe	0.218059	0.707019	1	28	28
118.854057	1.306146	city	2	1	1.245200	1.245200	0	1	0	0	CorrectCommission	0.244378	0.691817	1	0	2.782353e+01
120.146919	1.279580	city	10	1	0.863307	0.863307	0	1	0	0	CorrectCommission	0.971231	0.680176	1	0	2.764706e+01
121.426460	1.279510	city	9	1	0.822559	0.822559	0	1	0	0	CorrectCommission	1.100934	0.671230	1	0	2.747059e+01
122.739326	1.346221	city	1	1	1.366309	1.366309	0	1	0	0	CorrectCommission	0.629880	0.664131	1	0	2.729412e+01
124.058899	1.292914	city	2	1	0.822424	0.822424	0	1	0	0	CorrectCommission	1.101363	0.658248	1	0	2.711765e+01
125.345207	1.279716	city	6	1	1.457228	1.457228	0	1	0	0	CorrectCommission	0.919285	0.653303	1	0	2.694118e+01
126.631531	1.292925	city	10	1	1.100589	1.100589	0	1	0	0	CorrectCommission	0.215934	0.649430	1	0	2.676471e+01
127.924454	1.292926	city	7	1	0.980082	0.980082	0	1	0	0	CorrectCommission	0.599522	0.647127	1	0	2.658824e+01
129.210693	1.279557	mountain	5	0	0.000000	0.973951	1	0	0	0	CorrectOmission	0.619038	0.647119	1	0	2.641176e+01
130.490265	1.279585	city	4	1	1.081168	1.081168	0	1	0	0	CorrectCommission	0.277754	0.650215	1	0	2.623529e+01
131.769775	1.279419	city	2	1	1.300706	1.300706	0	1	0	0	CorrectCommission	0.421058	0.657155	1	0	2.605882e+01
133.049347	1.279742	city	9	1	1.464461	1.464461	0	1	0	0	CorrectCommission	0.942309	0.668388	1	0	2.588235e+01
134.328995	1.279556	city	5	1	1.370065	1.370065	0	1	0	0	CorrectCommission	0.641836	0.683999	1	0	2.570588e+01
135.621902	1.306241	city	8	1	1.378230	1.378230	0	1	0	0	CorrectCommission	0.667825	0.703644	1	0	2.552941e+01
136.914825	1.279602	city	3	1	1.407923	1.407923	0	1	0	0	CorrectCommission	0.762343	0.726508	1	0	2.535294e+01
138.194412	1.279573	city	7	1	1.311649	1.311649	0	1	0	0	CorrectCommission	0.455893	0.751368	1	0	2.517647e+01
139.473969	1.279556	city	5	1	1.086126	1.086126	0	1	0	0	CorrectCommission	0.261973	0.776740	1	0	25
140.760208	1.292914	city	2	1	0.990444	0.990444	0	1	0	0	CorrectCommission	0.566539	0.801026	1	0	2.482353e+01
142.066452	1.319573	city	8	1	0.823307	0.823307	0	1	0	0	CorrectCommission	1.098553	0.822743	1	0	2.464706e+01
143.366028	1.279570	city	6	1	1.710916	1.710916	0	1	0	0	CorrectCommission	1.726803	0.840738	0	0	2.447059e+01
144.652191	1.292769	city	5	1	1.618185	1.618185	0	1	0	0	CorrectCommission	1.431628	0.854305	0	0	2.429412e+01
145.938354	1.279565	mountain	2	0	0.000000	1.532308	1	0	0	0	CorrectOmission	1.158274	0.863272	0	0	2.411765e+01
147.217926	1.279578	city	9	1	1.406572	1.406572	0	1	0	0	CorrectCommission	0.758043	0.867959	0	0	2.394118e+01
148.497589	1.279736	city	6	1	1.194263	1.194263	0	1	0	0	CorrectCommission	0.082240	0.869027	0	0	2.376471e+01
149.777237	1.279549	city	9	1	0.765246	0.765246	0	1	0	0	CorrectCommission	1.283368	0.867273	0	0	2.358824e+01
151.056793	1.279569	city	1	1	1.511932	1.511932	0	1	0	0	CorrectCommission	1.093414	0.863373	0	0	2.341176e+01
152.336304	1.279448	city	3	1	1.301334	1.301334	0	1	0	0	CorrectCommission	0.423059	0.857769	0	0	2.323529e+01
153.615906	1.279767	city	7	1	1.180653	1.180653	0	1	0	0	CorrectCommission	0.038917	0.850566	0	0	2.305882e+01
154.895493	1.279401	city	2	1	0.927467	0.927467	0	1	0	0	CorrectCommission	0.767001	0.841573	0	0	2.288235e+01
156.175064	1.279741	city	1	1	0.887415	0.887415	0	1	0	0	CorrectCommission	0.894492	0.830396	1	0	2.270588e+01
157.461319	1.292768	city	6	1	0.698647	0.698647	0	1	0	0	CorrectCommission	1.495361	0.816671	1	0	2.252941e+01
158.767471	1.319554	city	4	1	1.782998	1.782998	0	1	0	0	CorrectCommission	1.956248	0.800232	1	0	2.235294e+01
160.087097	1.319702	city	5	1	1.545014	1.545014	0	1	0	0	CorrectCommission	1.198719	0.781231	1	0	2.217647e+01
163.359360	5.224818	break	0	0	0.000000	1.260816	0	0	0	0	ThoughtProbe	0.294084	0.760198	1	22	22
166.624893	1.306233	city	2	1	1.054993	1.054993	0	1	0	0	CorrectCommission	0.361073	0.737925	1	0	2.217500e+01
167.924545	1.293074	city	7	1	1.052135	1.052135	0	1	0	0	CorrectCommission	0.370170	0.715314	1	0	2.235000e+01
169.210754	1.279339	city	1	1	1.182829	1.182829	0	1	0	0	CorrectCommission	0.045844	0.693216	1	0	2.252500e+01
170.510315	1.319801	city	6	1	1.022151	1.022151	0	1	0	0	CorrectCommission	0.465611	0.672298	1	0	2.270000e+01
171.816589	1.292749	city	7	1	1.668182	1.668182	0	1	0	0	CorrectCommission	1.590777	0.652963	1	0	2.287500e+01
173.136093	1.346232	city	1	1	1.302722	1.302722	0	1	0	0	CorrectCommission	0.427478	0.635392	1	0	2.305000e+01
174.449066	1.279717	mountain	10	0	0.000000	1.127309	1	0	0	0	CorrectOmission	0.130883	0.619711	1	0	2.322500e+01
175.735382	1.292923	city	6	1	0.984577	0.984577	0	1	0	0	CorrectCommission	0.585214	0.606059	1	0	2.340000e+01
177.028305	1.292913	city	5	1	0.717162	0.717162	0	1	0	0	CorrectCommission	1.436426	0.594736	1	0	2.357500e+01
178.334457	1.319394	city	6	1	1.500833	1.500833	0	1	0	0	CorrectCommission	1.058085	0.586263	1	0	2.375000e+01
179.640640	1.292993	city	2	1	1.147239	1.147239	0	1	0	0	CorrectCommission	0.067442	0.581365	1	0	2.392500e+01
180.933640	1.292993	city	1	1	1.047640	1.047640	0	1	0	0	CorrectCommission	0.384477	0.580870	1	0	2.410000e+01
182.219925	1.279573	mountain	5	0	0.000000	1.195616	1	0	0	0	CorrectOmission	0.086546	0.585433	1	0	2.427500e+01
183.499496	1.279589	city	10	1	1.349490	1.349490	0	1	0	0	CorrectCommission	0.576344	0.595392	1	0	2.445000e+01
184.792404	1.306207	city	8	1	1.267584	1.267584	0	1	0	0	CorrectCommission	0.315629	0.610571	1	0	2.462500e+01
186.085297	1.279581	city	6	1	1.049620	1.049620	0	1	0	0	CorrectCommission	0.378175	0.630204	1	0	2.480000e+01
187.371536	1.292913	city	8	1	1.029850	1.029850	0	1	0	0	CorrectCommission	0.441106	0.652957	1	0	2.497500e+01
188.657791	1.279584	city	6	1	1.033114	1.033114	0	1	0	0	CorrectCommission	0.430714	0.677091	1	0	2.515000e+01
189.950638	1.306113	city	2	1	0.768293	0.768293	0	1	0	0	CorrectCommission	1.273670	0.700722	1	0	2.532500e+01
191.243546	1.279700	city	6	1	0.911227	0.911227	0	1	0	0	CorrectCommission	0.818694	0.722142	1	0	2.550000e+01
192.523117	1.279433	city	7	1	0.821524	0.821524	0	1	0	0	CorrectCommission	1.104231	0.740179	1	0	2.567500e+01
193.802704	1.279739	city	6	1	1.620648	1.620648	0	1	0	0	CorrectCommission	1.439470	0.754382	1	0	2.585000e+01
195.088928	1.292735	city	5	1	1.466903	1.466903	0	1	0	0	CorrectCommission	0.950082	0.765128	1	0	2.602500e+01
196.381744	1.292893	city	9	1	1.259788	1.259788	0	1	0	0	CorrectCommission	0.290813	0.773583	1	0	2.620000e+01
197.668030	1.279684	mountain	2	0	0.000000	1.407035	1	0	0	0	CorrectOmission	0.759517	0.781463	1	0	2.637500e+01
198.947693	1.279639	city	6	1	1.551979	1.551979	0	1	0	0	CorrectCommission	1.220889	0.790678	1	0	2.655000e+01
200.240677	1.306306	city	9	1	1.337955	1.337955	0	1	0	0	CorrectCommission	0.539627	0.802907	1	0	2.672500e+01
201.560242	1.332830	city	7	1	1.070984	1.070984	0	1	0	0	CorrectCommission	0.310171	0.819275	1	0	2.690000e+01
202.899765	1.346234	city	6	1	1.039612	1.039612	0	1	0	0	CorrectCommission	0.410033	0.839983	0	0	2.707500e+01
204.219254	1.292731	city	7	1	1.165304	1.165304	0	1	0	0	CorrectCommission	0.009941	0.864175	0	0	2.725000e+01
205.505493	1.279743	city	8	1	0.861026	0.861026	0	1	0	0	CorrectCommission	0.978491	0.889959	0	0	2.742500e+01
206.811737	1.332760	city	5	1	0.900603	0.900603	0	1	0	0	CorrectCommission	0.852512	0.914652	0	0	2.760000e+01
208.117996	1.279754	city	8	1	0.752328	0.752328	0	1	0	0	CorrectCommission	1.324487	0.935233	0	0	2.777500e+01
209.404327	1.292891	city	6	1	1.703627	1.703627	0	1	0	0	CorrectCommission	1.703602	0.948785	0	0	2.795000e+01
210.690536	1.279539	city	1	1	1.513202	1.513202	0	1	0	0	CorrectCommission	1.097458	0.953000	0	0	2.812500e+01
211.983398	1.306181	city	7	1	1.821452	1.821452	0	1	0	0	CorrectCommission	2.078651	0.946618	0	0	2.830000e+01
213.276276	1.279567	city	2	1	1.638523	1.638523	0	1	0	0	CorrectCommission	1.496369	0.929614	0	0	2.847500e+01
214.562546	1.292993	city	7	1	1.317325	1.317325	0	1	0	0	CorrectCommission	0.473958	0.903294	0	0	2.865000e+01
215.855515	1.292928	city	2	1	0.924431	0.924431	0	1	0	0	CorrectCommission	0.776665	0.870137	0	0	2.882500e+01
219.227722	5.451505	break	0	0	0.000000	0.884562	0	0	0	0	ThoughtProbe	0.903574	0.833429	1	29	29
222.593292	1.279617	mountain	7	0	0.000000	0.996949	1	0	0	0	CorrectOmission	0.545832	0.796859	1	0	2.858824e+01
223.879547	1.292903	city	4	1	1.060828	1.060828	0	1	0	0	CorrectCommission	0.342500	0.764078	1	0	2.817647e+01
225.165726	1.279434	city	8	1	0.875431	0.875431	0	1	0	0	CorrectCommission	0.932639	0.738234	1	0	2.776471e+01
226.451874	1.292880	city	7	1	1.137722	1.137722	0	1	0	0	CorrectCommission	0.097737	0.721619	1	0	2.735294e+01
227.738190	1.279751	city	3	1	1.347596	1.347596	0	1	0	0	CorrectCommission	0.570316	0.715509	1	0	2.694118e+01
229.031174	1.306223	city	2	1	1.225839	1.225839	0	1	0	0	CorrectCommission	0.182749	0.720011	1	0	2.652941e+01
230.324081	1.279595	city	10	1	0.989628	0.989628	0	1	0	0	CorrectCommission	0.569136	0.734169	1	0	2.611765e+01
231.610291	1.292820	city	4	1	0.986485	0.986485	0	1	0	0	CorrectCommission	0.579142	0.756094	1	0	2.570588e+01
232.903198	1.292981	city	3	1	0.823573	0.823573	0	1	0	0	CorrectCommission	1.097708	0.783284	1	0	2.529412e+01
234.189407	1.279427	city	10	1	1.050579	1.050579	0	1	0	0	CorrectCommission	0.375124	0.812940	1	0	2.488235e+01
235.482300	1.306386	city	2	1	0.880851	0.880851	0	1	0	0	CorrectCommission	0.915385	0.842371	0	0	2.447059e+01
236.781891	1.292791	mountain	10	1	0.738550	0.738550	0	0	1	0	CommissionError	1.368344	0.869262	0	0	2.405882e+01
238.081467	1.306347	city	1	1	1.738036	1.738036	0	1	0	0	CorrectCommission	1.813130	0.891928	0	0	2.364706e+01
239.374374	1.279470	city	9	1	1.459161	1.459161	0	1	0	0	CorrectCommission	0.925440	0.909440	0	0	2.323529e+01
240.673950	1.319698	city	1	1	1.552311	1.552311	0	1	0	0	CorrectCommission	1.221945	0.921650	0	0	2.282353e+01
241.980270	1.292914	city	2	1	1.423576	1.423576	0	1	0	0	CorrectCommission	0.812168	0.929024	0	0	2.241176e+01
243.266495	1.279554	city	7	1	1.191556	1.191556	0	1	0	0	CorrectCommission	0.073623	0.932520	0	0	22
244.559311	1.306081	city	5	1	0.890795	0.890795	0	1	0	0	CorrectCommission	0.883733	0.933335	0	0	2.158824e+01
245.858810	1.292914	city	3	1	0.829199	0.829199	0	1	0	0	CorrectCommission	1.079800	0.932656	0	0	2.117647e+01
247.151794	1.293062	city	1	1	0.769908	0.769908	0	1	0	0	CorrectCommission	1.268530	0.931512	0	0	2.076471e+01
248.444748	1.292842	city	9	1	1.617746	1.617746	0	1	0	0	CorrectCommission	1.430233	0.930626	0	0	2.035294e+01
249.730927	1.279496	city	4	1	1.302812	1.302812	0	1	0	0	CorrectCommission	0.427764	0.930336	0	0	1.994118e+01
251.010529	1.279711	city	6	1	1.079072	1.079072	0	1	0	0	CorrectCommission	0.284425	0.930613	0	0	1.952941e+01
252.303467	1.306171	city	10	1	0.837042	0.837042	0	1	0	0	CorrectCommission	1.054835	0.931028	0	0	1.911765e+01
253.603012	1.292924	city	1	1	0.886777	0.886777	0	1	0	0	CorrectCommission	0.896522	0.930833	0	0	1.870588e+01
254.902634	1.306318	city	6	1	1.645698	1.645698	0	1	0	0	CorrectCommission	1.519207	0.929080	0	0	1.829412e+01
256.208862	1.306109	city	1	1	1.571632	1.571632	0	1	0	0	CorrectCommission	1.283447	0.924708	0	0	1.788235e+01
257.528320	1.332837	city	4	1	1.340639	1.340639	0	1	0	0	CorrectCommission	0.548169	0.916716	0	0	1.747059e+01
258.847931	1.306384	city	7	1	1.102779	1.102779	0	1	0	0	CorrectCommission	0.208963	0.904267	0	0	1.705882e+01
260.140930	1.279600	city	10	1	0.763404	0.763404	0	1	0	0	CorrectCommission	1.289233	0.886854	0	0	1.664706e+01
261.420502	1.279576	city	9	1	0.726635	0.726635	0	1	0	0	CorrectCommission	1.406270	0.864352	0	0	1.623529e+01
262.706757	1.292926	city	8	1	1.648182	1.648182	0	1	0	0	CorrectCommission	1.527115	0.837139	0	0	1.582353e+01
263.993011	1.279581	city	3	1	1.460315	1.460315	0	1	0	0	CorrectCommission	0.929113	0.806117	1	0	1.541176e+01
267.185303	5.104991	break	0	0	0.000000	1.335016	0	0	0	0	ThoughtProbe	0.530273	0.772673	1	15	15
270.384186	1.292745	mountain	5	0	0.000000	1.215398	1	0	0	0	CorrectOmission	0.149515	0.738568	1	0	1.540000e+01
271.677002	1.292889	city	1	1	1.044572	1.044572	0	1	0	0	CorrectCommission	0.394243	0.705851	1	0	1.580000e+01
272.969971	1.293064	city	9	1	0.765651	0.765651	0	1	0	0	CorrectCommission	1.282080	0.676609	1	0	1.620000e+01
274.262939	1.292880	city	2	1	1.480656	1.480656	0	1	0	0	CorrectCommission	0.993859	0.652821	1	0	1.660000e+01
275.569183	1.319623	city	6	1	1.168373	1.168373	0	1	0	0	CorrectCommission	0.000171	0.636182	1	0	17
276.875458	1.292907	city	5	1	1.156847	1.156847	0	1	0	0	CorrectCommission	0.036861	0.627907	1	0	1.740000e+01
278.181610	1.319420	city	3	1	1.067548	1.067548	0	1	0	0	CorrectCommission	0.321109	0.628594	1	0	1.780000e+01
279.501190	1.319716	mountain	6	1	0.884791	0.884791	0	0	1	0	CommissionError	0.902843	0.638131	1	0	1.820000e+01
280.800781	1.279480	city	5	1	1.124194	1.124194	0	1	0	0	CorrectCommission	0.140798	0.655693	1	0	1.860000e+01
282.106995	1.332965	city	2	1	1.498298	1.498298	0	1	0	0	CorrectCommission	1.050017	0.679816	1	0	19
283.419983	1.292975	city	4	1	1.187781	1.187781	0	1	0	0	CorrectCommission	0.061607	0.708463	1	0	1.940000e+01
284.726227	1.319525	city	1	1	0.879144	0.879144	0	1	0	0	CorrectCommission	0.920819	0.739303	1	0	1.980000e+01
286.032349	1.292738	city	9	1	1.474536	1.474536	0	1	0	0	CorrectCommission	0.974378	0.769840	1	0	2.020000e+01
287.331909	1.306385	city	10	1	1.102056	1.102056	0	1	0	0	CorrectCommission	0.211267	0.797759	1	0	2.060000e+01
288.624908	1.279583	city	8	1	1.719317	1.719317	0	1	0	0	CorrectCommission	1.753543	0.821192	1	0	21
289.904510	1.279633	city	10	1	1.681218	1.681218	0	1	0	0	CorrectCommission	1.632270	0.838842	0	0	2.140000e+01
291.197357	1.306073	city	1	1	1.282670	1.282670	0	1	0	0	CorrectCommission	0.363650	0.850205	0	0	2.180000e+01
292.490265	1.279706	city	4	1	0.766316	0.766316	0	1	0	0	CorrectCommission	1.279963	0.855581	0	0	2.220000e+01
293.776520	1.292813	city	5	1	1.440686	1.440686	0	1	0	0	CorrectCommission	0.866631	0.855919	0	0	2.260000e+01
295.069397	1.292978	city	2	1	0.939528	0.939528	0	1	0	0	CorrectCommission	0.728609	0.852748	0	0	23
296.355682	1.279580	city	9	1	1.622376	1.622376	0	1	0	0	CorrectCommission	1.444971	0.847881	0	0	2.340000e+01
297.661865	1.332779	city	2	1	1.233821	1.233821	0	1	0	0	CorrectCommission	0.208159	0.843134	0	0	2.380000e+01
298.968048	1.279562	city	3	1	0.940583	0.940583	0	1	0	0	CorrectCommission	0.725253	0.840095	0	0	2.420000e+01
300.267609	1.319557	city	9	1	1.327841	1.327841	0	1	0	0	CorrectCommission	0.507434	0.839866	0	0	2.460000e+01
301.587219	1.319705	city	5	1	1.120017	1.120017	0	1	0	0	CorrectCommission	0.154093	0.842941	0	0	25
302.913452	1.332750	city	2	1	1.566380	1.566380	0	1	0	0	CorrectCommission	1.266728	0.849220	0	0	2.540000e+01
304.233032	1.306401	city	4	1	0.992680	0.992680	0	1	0	0	CorrectCommission	0.559420	0.858025	0	0	2.580000e+01
305.525970	1.279462	city	9	1	0.672933	0.672933	0	1	0	0	CorrectCommission	1.577213	0.868326	0	0	2.620000e+01
306.812195	1.293005	city	4	1	1.404925	1.404925	0	1	0	0	CorrectCommission	0.752798	0.878825	0	0	2.660000e+01
308.098511	1.279602	city	7	1	0.994977	0.994977	0	1	0	0	CorrectCommission	0.552111	0.888252	0	0	27
309.391357	1.306131	mountain	3	1	0.503305	0.503305	0	0	1	0	CommissionError	2.117156	0.895454	0	0	2.740000e+01
310.684265	1.279665	city	4	1	1.125384	1.125384	0	1	0	0	CorrectCommission	0.137008	0.899513	0	0	2.780000e+01
311.977234	1.306257	city	1	1	0.990872	0.990872	0	1	0	0	CorrectCommission	0.565176	0.899906	0	0	2.820000e+01
313.283478	1.306238	city	5	1	1.659902	1.659902	0	1	0	0	CorrectCommission	1.564419	0.896394	0	0	2.860000e+01
314.583038	1.292898	city	3	1	1.379838	1.379838	0	1	0	0	CorrectCommission	0.672945	0.889072	0	0	29
315.882538	1.306089	city	10	1	0.885039	0.885039	0	1	0	0	CorrectCommission	0.902053	0.878427	0	0	2.940000e+01
317.175385	1.279601	city	2	1	1.634435	1.634435	0	1	0	0	CorrectCommission	1.483355	0.865166	0	0	2.980000e+01
318.468292	1.306209	city	3	1	1.092999	1.092999	0	1	0	0	CorrectCommission	0.240095	0.850223	0	0	3.020000e+01
319.767914	1.293066	city	2	1	0.823627	0.823627	0	1	0	0	CorrectCommission	1.097536	0.834765	0	0	3.060000e+01
322.673676	4.518451	break	0	1	0.879466	0.879466	0	0	0	0	ThoughtProbe	0.919795	0.820034	1	31	31
325.572723	1.279641	city	10	1	1.480261	1.480261	0	1	0	0	CorrectCommission	0.992601	0.807344	1	0	3.093478e+01
326.859009	1.292907	city	2	1	1.220298	1.220298	0	1	0	0	CorrectCommission	0.165112	0.797944	1	0	3.086957e+01
328.178558	1.346224	city	1	1	0.863476	0.863476	0	1	0	0	CorrectCommission	0.970693	0.792942	1	0	3.080435e+01
329.498138	1.292893	city	2	1	1.189111	1.189111	0	1	0	0	CorrectCommission	0.065840	0.793191	1	0	3.073913e+01
330.790955	1.292749	city	1	1	1.545012	1.545012	0	1	0	0	CorrectCommission	1.198712	0.799223	1	0	3.067391e+01
332.097046	1.319473	city	3	1	1.029322	1.029322	0	1	0	0	CorrectCommission	0.442785	0.811112	1	0	3.060870e+01
333.403381	1.293156	city	9	1	1.557967	1.557967	0	1	0	0	CorrectCommission	1.239949	0.828478	1	0	3.054348e+01
334.703003	1.306098	city	4	1	1.036349	1.036349	0	1	0	0	CorrectCommission	0.420417	0.850394	0	0	3.047826e+01
336.009247	1.306395	city	6	1	1.587593	1.587593	0	1	0	0	CorrectCommission	1.334253	0.875495	0	0	3.041304e+01
337.315460	1.306061	city	2	1	1.159166	1.159166	0	1	0	0	CorrectCommission	0.029478	0.901914	0	0	3.034783e+01
338.621613	1.306234	mountain	4	1	0.727932	0.727932	0	0	1	0	CommissionError	1.402142	0.927533	0	0	3.028261e+01
339.921265	1.293068	city	7	1	1.369999	1.369999	0	1	0	0	CorrectCommission	0.641627	0.950078	0	0	3.021739e+01
341.207611	1.279588	city	1	1	1.099718	1.099718	0	1	0	0	CorrectCommission	0.218707	0.967421	0	0	3.015217e+01
342.493866	1.292924	city	8	1	1.541396	1.541396	0	1	0	0	CorrectCommission	1.187203	0.977870	0	0	3.008696e+01
343.800079	1.319543	mountain	2	1	2.077198	2.077198	0	0	1	0	CommissionError	2.892719	0.980387	0	0	3.002174e+01
345.112976	1.306257	city	6	1	1.767549	1.767549	0	1	0	0	CorrectCommission	1.907071	0.974738	0	0	2.995652e+01
346.412567	1.292892	city	4	1	1.483416	1.483416	0	1	0	0	CorrectCommission	1.002644	0.961633	0	0	2.989130e+01
347.712128	1.306232	mountain	1	1	1.216878	1.216878	0	0	1	0	CommissionError	0.154225	0.942539	0	0	2.982609e+01
349.004974	1.279452	city	6	1	1.455420	1.455420	0	1	0	0	CorrectCommission	0.913532	0.919423	0	0	2.976087e+01
350.284546	1.279713	city	3	1	1.481705	1.481705	0	1	0	0	CorrectCommission	0.997198	0.894445	0	0	2.969565e+01
351.577515	1.306247	city	9	1	1.208106	1.208106	0	1	0	0	CorrectCommission	0.126302	0.869630	0	0	2.963043e+01
352.870422	1.279562	city	8	1	1.096668	1.096668	0	1	0	0	CorrectCommission	0.228415	0.846617	0	0	2.956522e+01
354.163239	1.306073	city	6	1	0.876004	0.876004	0	1	0	0	CorrectCommission	0.930815	0.826454	1	0	2.950000e+01
355.469421	1.306239	city	8	1	0.794637	0.794637	0	1	0	0	CorrectCommission	1.189815	0.809611	1	0	2.943478e+01
356.769073	1.293076	city	10	1	1.532821	1.532821	0	1	0	0	CorrectCommission	1.159908	0.796095	1	0	2.936957e+01
358.082062	1.332889	city	1	1	1.180841	1.180841	0	1	0	0	CorrectCommission	0.039517	0.785647	1	0	2.930435e+01
359.408295	1.319587	city	6	1	0.943391	0.943391	0	1	0	0	CorrectCommission	0.716315	0.777940	1	0	2.923913e+01
360.734528	1.332908	city	3	1	1.715999	1.715999	0	1	0	0	CorrectCommission	1.742984	0.772727	1	0	2.917391e+01
362.047424	1.292844	city	8	1	1.430577	1.430577	0	1	0	0	CorrectCommission	0.834453	0.769937	1	0	2.910870e+01
363.346832	1.306009	mountain	7	0	0.000000	1.392906	1	0	0	0	CorrectOmission	0.714543	0.769724	1	0	2.904348e+01
364.639771	1.279852	city	6	1	1.364953	1.364953	0	1	0	0	CorrectCommission	0.625564	0.772280	1	0	2.897826e+01
365.946136	1.332880	city	7	1	1.108683	1.108683	0	1	0	0	CorrectCommission	0.190171	0.777731	1	0	2.891304e+01
367.265656	1.306151	city	5	1	1.167240	1.167240	0	1	0	0	CorrectCommission	0.003777	0.785929	1	0	2.884783e+01
368.558563	1.279682	city	2	1	0.826190	0.826190	0	1	0	0	CorrectCommission	1.089377	0.796327	1	0	2.878261e+01
369.844879	1.292926	city	10	1	0.835325	0.835325	0	1	0	0	CorrectCommission	1.060300	0.807919	1	0	2.871739e+01
371.144348	1.306058	city	6	1	0.800518	0.800518	0	1	0	0	CorrectCommission	1.171093	0.819300	1	0	2.865217e+01
372.443878	1.292953	city	2	1	1.422648	1.422648	0	1	0	0	CorrectCommission	0.809214	0.828761	1	0	2.858696e+01
373.756866	1.333018	city	8	1	1.243375	1.243375	0	1	0	0	CorrectCommission	0.238567	0.834556	0	0	2.852174e+01
375.076477	1.306210	city	10	1	0.975552	0.975552	0	1	0	0	CorrectCommission	0.613941	0.835142	0	0	2.845652e+01
376.376038	1.292919	city	4	1	1.724228	1.724228	0	1	0	0	CorrectCommission	1.769177	0.829386	1	0	2.839130e+01
377.668915	1.292875	city	10	1	1.687395	1.687395	0	1	0	0	CorrectCommission	1.651932	0.816744	1	0	2.832609e+01
378.961823	1.292930	city	8	1	1.532057	1.532057	0	1	0	0	CorrectCommission	1.157475	0.797398	1	0	2.826087e+01
380.261383	1.306149	city	1	1	1.280492	1.280492	0	1	0	0	CorrectCommission	0.356717	0.772229	1	0	2.819565e+01
381.560944	1.293022	city	3	1	1.499863	1.499863	0	1	0	0	CorrectCommission	1.054997	0.742700	1	0	2.813043e+01
382.913879	1.412846	city	9	1	1.321685	1.321685	0	1	0	0	CorrectCommission	0.487839	0.710640	1	0	2.806522e+01
386.079437	4.918241	break	0	0	0.000000	1.268884	0	0	0	0	ThoughtProbe	0.319768	0.678067	1	28	28
389.198395	1.319706	city	5	1	1.195517	1.195517	0	1	0	0	CorrectCommission	0.086230	0.646924	1	0	2.814706e+01
390.518036	1.319559	city	8	1	0.955639	0.955639	0	1	0	0	CorrectCommission	0.677326	0.618957	1	0	2.829412e+01
391.850891	1.346161	mountain	10	1	0.989822	0.989822	0	0	1	0	CommissionError	0.568519	0.595573	1	0	2.844118e+01
393.170471	1.292997	city	2	1	1.379297	1.379297	0	1	0	0	CorrectCommission	0.671222	0.577867	1	0	2.858824e+01
394.489990	1.346051	city	5	1	1.378595	1.378595	0	1	0	0	CorrectCommission	0.668990	0.566635	1	0	2.873529e+01
395.829559	1.333055	city	1	1	1.410521	1.410521	0	1	0	0	CorrectCommission	0.770612	0.562379	1	0	2.888235e+01
397.175812	1.359480	city	10	1	1.212642	1.212642	0	1	0	0	CorrectCommission	0.140743	0.565359	1	0	2.902941e+01
398.495392	1.279668	city	6	1	1.350699	1.350699	0	1	0	0	CorrectCommission	0.580193	0.575582	1	0	2.917647e+01
399.815002	1.359528	city	10	1	1.270754	1.270754	0	1	0	0	CorrectCommission	0.325717	0.592730	1	0	2.932353e+01
401.134460	1.279428	city	2	1	1.124197	1.124197	0	1	0	0	CorrectCommission	0.140789	0.616153	1	0	2.947059e+01
402.427399	1.306395	city	9	1	1.069890	1.069890	0	1	0	0	CorrectCommission	0.313653	0.644840	1	0	2.961765e+01
403.727051	1.292915	city	8	1	0.879731	0.879731	0	1	0	0	CorrectCommission	0.918950	0.677439	1	0	2.976471e+01
405.019958	1.292915	city	9	1	0.978185	0.978185	0	1	0	0	CorrectCommission	0.605560	0.712337	1	0	2.991176e+01
406.306183	1.279559	city	3	1	0.828582	0.828582	0	1	0	0	CorrectCommission	1.081764	0.747799	1	0	3.005882e+01
407.592438	1.292924	city	6	1	1.567207	1.567207	0	1	0	0	CorrectCommission	1.269362	0.782083	1	0	3.020588e+01
408.925262	1.372720	city	1	1	1.288069	1.288069	0	1	0	0	CorrectCommission	0.380835	0.813587	1	0	3.035294e+01
410.271484	1.319729	city	5	1	1.080956	1.080956	0	1	0	0	CorrectCommission	0.278430	0.840997	0	0	3.050000e+01
411.597778	1.332883	mountain	8	1	0.677513	0.677513	0	0	1	0	CommissionError	1.562632	0.863364	0	0	3.064706e+01
412.910706	1.292928	city	2	1	1.751406	1.751406	0	1	0	0	CorrectCommission	1.855687	0.880112	0	0	3.079412e+01
414.210266	1.306206	city	5	1	1.491874	1.491874	0	1	0	0	CorrectCommission	1.029570	0.891044	0	0	3.094118e+01
415.516418	1.306100	city	6	1	1.370162	1.370162	0	1	0	0	CorrectCommission	0.642147	0.896283	0	0	3.108824e+01
416.829285	1.319631	city	1	1	1.194066	1.194066	0	1	0	0	CorrectCommission	0.081612	0.896167	0	0	3.123529e+01
418.135590	1.292982	city	6	1	0.774988	0.774988	0	1	0	0	CorrectCommission	1.252360	0.891169	0	0	3.138235e+01
419.421783	1.279431	city	1	1	1.551432	1.551432	0	1	0	0	CorrectCommission	1.219149	0.881802	0	0	3.152941e+01
420.714661	1.306333	city	7	1	1.177214	1.177214	0	1	0	0	CorrectCommission	0.027970	0.868670	0	0	3.167647e+01
422.020996	1.306289	city	8	1	0.779243	0.779243	0	1	0	0	CorrectCommission	1.238815	0.852526	0	0	3.182353e+01
423.347260	1.346243	city	6	1	0.738982	0.738982	0	1	0	0	CorrectCommission	1.366971	0.834223	0	0	3.197059e+01
424.666809	1.292890	city	1	1	1.545459	1.545459	0	1	0	0	CorrectCommission	1.200136	0.814873	1	0	3.211765e+01
425.986298	1.346075	city	5	1	1.552884	1.552884	0	1	0	0	CorrectCommission	1.223770	0.795848	1	0	3.226471e+01
427.319183	1.319710	city	2	1	1.325087	1.325087	0	1	0	0	CorrectCommission	0.498668	0.778703	1	0	3.241176e+01
428.632172	1.306266	city	6	1	1.086277	1.086277	0	1	0	0	CorrectCommission	0.261493	0.765110	1	0	3.255882e+01
429.938324	1.306050	city	8	1	1.081916	1.081916	0	1	0	0	CorrectCommission	0.275372	0.756672	1	0	3.270588e+01
431.251129	1.319567	city	4	1	1.218734	1.218734	0	1	0	0	CorrectCommission	0.160135	0.754781	1	0	3.285294e+01
433.996979	4.172114	break	0	0	0.000000	1.433638	0	0	0	0	ThoughtProbe	0.844197	0.760452	1	33	33
436.736084	1.306092	city	6	1	1.463370	1.463370	0	1	0	0	CorrectCommission	0.938837	0.774210	1	0	3.291304e+01
438.088959	1.399648	city	7	1	1.044672	1.044672	0	1	0	0	CorrectCommission	0.393924	0.796053	1	0	3.282609e+01
439.468567	1.359601	city	6	1	0.739929	0.739929	0	1	0	0	CorrectCommission	1.363954	0.825458	1	0	3.273913e+01
440.801514	1.306237	city	1	1	1.470870	1.470870	0	1	0	0	CorrectCommission	0.962710	0.861319	0	0	3.265217e+01
442.101074	1.292916	city	7	1	1.430430	1.430430	0	1	0	0	CorrectCommission	0.833987	0.902058	0	0	3.256522e+01
443.453979	1.412892	city	10	1	1.247667	1.247667	0	1	0	0	CorrectCommission	0.252229	0.945630	0	0	3.247826e+01
444.800140	1.279453	city	6	1	0.996407	0.996407	0	1	0	0	CorrectCommission	0.547557	0.989646	0	0	3.239130e+01
446.106354	1.332920	city	9	1	0.961142	0.961142	0	1	0	0	CorrectCommission	0.659810	1.031525	0	0	3.230435e+01
447.432556	1.319533	city	3	1	0.774482	0.774482	0	1	0	0	CorrectCommission	1.253968	1.068709	0	0	3.221739e+01
448.745514	1.306338	city	8	1	1.652728	1.652728	0	1	0	0	CorrectCommission	1.541583	1.098900	0	0	3.213043e+01
450.051788	1.306233	mountain	2	1	2.068412	2.068412	0	0	1	0	CommissionError	2.864751	1.120266	0	0	3.204348e+01
451.377991	1.346151	city	1	1	1.575436	1.575436	0	1	0	0	CorrectCommission	1.295554	1.131587	0	0	3.195652e+01
452.704132	1.306163	city	7	1	1.611499	1.611499	0	1	0	0	CorrectCommission	1.410346	1.132415	0	0	3.186957e+01
454.010406	1.306397	city	3	1	1.504086	1.504086	0	1	0	0	CorrectCommission	1.068440	1.122882	0	0	3.178261e+01
455.316742	1.306220	city	6	1	1.344682	1.344682	0	1	0	0	CorrectCommission	0.561041	1.103624	0	0	3.169565e+01
456.616302	1.292909	city	1	1	1.404817	1.404817	0	1	0	0	CorrectCommission	0.752456	1.075618	0	0	3.160870e+01
457.929199	1.332909	city	5	1	1.010778	1.010778	0	1	0	0	CorrectCommission	0.501814	1.039991	0	0	3.152174e+01
459.242126	1.292919	city	4	1	0.614245	0.614245	0	1	0	0	CorrectCommission	1.764020	0.997966	0	0	3.143478e+01
460.541595	1.306058	mountain	7	1	0.674602	0.674602	0	0	1	0	CommissionError	1.571899	0.950801	0	0	3.134783e+01
461.834442	1.279603	city	9	1	1.407048	1.407048	0	1	0	0	CorrectCommission	0.759557	0.899887	0	0	3.126087e+01
463.114105	1.279710	mountain	5	0	0.000000	0.995605	1	0	0	0	CorrectOmission	0.550110	0.846805	0	0	3.117391e+01
464.407074	1.306239	city	3	1	0.586373	0.586373	0	1	0	0	CorrectCommission	1.852742	0.793363	1	0	3.108696e+01
465.713287	1.306234	city	2	1	1.325449	1.325449	0	1	0	0	CorrectCommission	0.499818	0.741566	1	0	31
467.039520	1.346210	city	9	0	0.000000	1.249645	0	0	0	1	OmissionError	0.258526	0.693643	1	0	3.091304e+01
468.359009	1.292783	city	4	1	0.997423	0.997423	0	1	0	0	CorrectCommission	0.544325	0.651821	1	0	3.082609e+01
469.651947	1.293063	city	1	1	1.207245	1.207245	0	1	0	0	CorrectCommission	0.123561	0.618178	1	0	3.073913e+01
470.964905	1.332862	mountain	3	1	1.268173	1.268173	0	0	1	0	CommissionError	0.317503	0.594454	1	0	3.065217e+01
472.277710	1.292769	city	9	1	1.244115	1.244115	0	1	0	0	CorrectCommission	0.240923	0.581852	1	0	3.056522e+01
473.577209	1.306235	city	5	1	1.044144	1.044144	0	1	0	0	CorrectCommission	0.395607	0.580918	1	0	3.047826e+01
474.883545	1.306396	city	7	1	1.012872	1.012872	0	1	0	0	CorrectCommission	0.495149	0.591450	1	0	3.039130e+01
476.196533	1.319573	city	3	1	1.036770	1.036770	0	1	0	0	CorrectCommission	0.419078	0.612448	1	0	3.030435e+01
477.509430	1.306234	city	10	1	0.834554	0.834554	0	1	0	0	CorrectCommission	1.062754	0.642136	1	0	3.021739e+01
478.815674	1.306258	city	8	1	1.000926	1.000926	0	1	0	0	CorrectCommission	0.533173	0.677985	1	0	3.013043e+01
480.128571	1.319541	city	2	1	1.124457	1.124457	0	1	0	0	CorrectCommission	0.139961	0.716878	1	0	3.004348e+01
481.448120	1.319586	city	8	1	1.004443	1.004443	0	1	0	0	CorrectCommission	0.521979	0.755209	1	0	2.995652e+01
482.754395	1.292906	city	6	1	0.922593	0.922593	0	1	0	0	CorrectCommission	0.782517	0.789086	1	0	2.986957e+01
484.060608	1.319554	city	3	1	0.861706	0.861706	0	1	0	0	CorrectCommission	0.976325	0.814612	1	0	2.978261e+01
485.360138	1.279512	city	10	1	0.719065	0.719065	0	1	0	0	CorrectCommission	1.430369	0.828175	1	0	2.969565e+01
486.659729	1.319644	city	5	1	0.699981	0.699981	0	1	0	0	CorrectCommission	1.491113	0.826787	1	0	2.960870e+01
487.999268	1.359459	city	3	1	0.794031	0.794031	0	1	0	0	CorrectCommission	1.191742	0.808351	1	0	2.952174e+01
489.332153	1.306316	city	10	1	0.620209	0.620209	0	1	0	0	CorrectCommission	1.745038	0.771916	1	0	2.943478e+01
490.651764	1.332913	city	6	1	0.917272	0.917272	0	1	0	0	CorrectCommission	0.799455	0.717806	1	0	2.934783e+01
491.971344	1.306217	city	5	1	1.006603	1.006603	0	1	0	0	CorrectCommission	0.515101	0.647669	1	0	2.926087e+01
493.277496	1.306086	city	10	1	0.953351	0.953351	0	1	0	0	CorrectCommission	0.684609	0.564316	1	0	2.917391e+01
494.590393	1.319719	city	7	1	0.833749	0.833749	0	1	0	0	CorrectCommission	1.065316	0.471557	1	0	2.908696e+01
497.842804	5.185103	break	0	0	1.285892	1.285892	0	0	0	0	ThoughtProbe	0.373905	0.373905	1	29	29
