onset	duration	trial_type	image_type	Press	ReactionTime	ReactionTime_Interpolated	CorrectOmission	CorrectCommission	CommissionError	OmissionError	response_type	nonsmoothVarianceTimeCourse	VarianceTimeCourse	In_the_Zone	ThoughtProbe	ThoughtProbe_Interpolated
0.659666	1.292878	city	9	1	1.417091	1.417091	0	1	0	0	CorrectCommission	0.201271	0.201271	1	0	70
1.945909	1.279608	city	1	1	1.314202	1.314202	0	1	0	0	CorrectCommission	0.101853	0.235872	1	0	70
3.225427	1.279430	city	9	1	1.190807	1.190807	0	1	0	0	CorrectCommission	0.465391	0.270185	1	0	70
4.505009	1.279734	city	3	1	1.231119	1.231119	0	1	0	0	CorrectCommission	0.346626	0.303860	1	0	70
5.797915	1.306078	city	9	1	1.256852	1.256852	0	1	0	0	CorrectCommission	0.270814	0.336463	1	0	70
7.097416	1.292922	mountain	6	0	0.000000	1.325696	1	0	0	0	CorrectOmission	0.067988	0.367458	1	0	70
8.383754	1.279754	city	4	1	1.317075	1.317075	0	1	0	0	CorrectCommission	0.093389	0.396263	1	0	70
9.676656	1.306049	city	10	1	1.110409	1.110409	0	1	0	0	CorrectCommission	0.702254	0.422293	1	0	70
10.969498	1.279634	city	2	1	1.073804	1.073804	0	1	0	0	CorrectCommission	0.810096	0.445049	1	0	70
12.249184	1.279738	city	3	1	1.022401	1.022401	0	1	0	0	CorrectCommission	0.961536	0.464235	1	0	70
13.528832	1.279559	city	4	1	1.155502	1.155502	0	1	0	0	CorrectCommission	0.569404	0.479781	1	0	70
14.808391	1.279557	city	10	1	1.207341	1.207341	0	1	0	0	CorrectCommission	0.416678	0.491879	1	0	70
16.087965	1.279593	city	7	1	1.234800	1.234800	0	1	0	0	CorrectCommission	0.335780	0.500933	1	0	70
17.367546	1.279567	city	5	1	1.127306	1.127306	0	1	0	0	CorrectCommission	0.652472	0.507491	1	0	70
18.647043	1.279429	city	7	1	1.289808	1.289808	0	1	0	0	CorrectCommission	0.173720	0.512130	1	0	70
19.933235	1.292955	city	3	1	1.153226	1.153226	0	1	0	0	CorrectCommission	0.576108	0.515412	1	0	70
21.219547	1.279668	mountain	4	0	0.000000	1.171125	1	0	0	0	CorrectOmission	0.523375	0.517803	1	0	70
22.512486	1.306210	city	7	1	1.196283	1.196283	0	1	0	0	CorrectCommission	0.449256	0.519691	1	0	70
23.812004	1.292827	city	9	1	1.081479	1.081479	0	1	0	0	CorrectCommission	0.787485	0.521402	1	0	70
25.098276	1.279716	city	5	1	1.282673	1.282673	0	1	0	0	CorrectCommission	0.194740	0.523257	1	0	70
26.377827	1.279387	mountain	7	0	0.000000	1.562001	1	0	0	0	CorrectOmission	0.628195	0.525641	1	0	70
27.657349	1.279655	city	6	1	1.566848	1.566848	0	1	0	0	CorrectCommission	0.642476	0.529000	1	0	70
28.936939	1.279528	city	10	1	0.944603	0.944603	0	1	0	0	CorrectCommission	1.190740	0.533860	1	0	70
30.216574	1.279742	city	6	1	1.283910	1.283910	0	1	0	0	CorrectCommission	0.191096	0.540762	1	0	70
31.502913	1.292934	city	3	1	1.403542	1.403542	0	1	0	0	CorrectCommission	0.161356	0.550185	1	0	70
32.789154	1.279547	city	4	1	1.555629	1.555629	0	1	0	0	CorrectCommission	0.609424	0.562383	1	0	70
34.075382	1.292916	city	10	1	1.306389	1.306389	0	1	0	0	CorrectCommission	0.124870	0.577281	1	0	70
35.368271	1.292858	city	8	1	1.249802	1.249802	0	1	0	0	CorrectCommission	0.291584	0.594444	1	0	70
36.654514	1.279632	city	10	1	1.053209	1.053209	0	1	0	0	CorrectCommission	0.870771	0.613058	1	0	70
37.934032	1.279403	city	5	1	1.176002	1.176002	0	1	0	0	CorrectCommission	0.509006	0.632005	1	0	70
39.220219	1.292974	city	10	1	1.099737	1.099737	0	1	0	0	CorrectCommission	0.733695	0.650008	1	0	70
40.506554	1.279690	city	2	1	0.980152	0.980152	0	1	0	0	CorrectCommission	1.086007	0.665820	1	0	70
41.786175	1.279555	city	1	1	0.974667	0.974667	0	1	0	0	CorrectCommission	1.102167	0.678438	1	0	70
43.078983	1.306059	mountain	7	1	1.166278	1.166278	0	0	1	0	CommissionError	0.537654	0.687268	1	0	70
44.371811	1.279596	city	3	1	1.236663	1.236663	0	1	0	0	CorrectCommission	0.330294	0.692252	1	0	70
45.651489	1.279760	city	8	1	1.032918	1.032918	0	1	0	0	CorrectCommission	0.930552	0.693863	1	0	70
46.944462	1.306187	city	1	1	0.891565	0.891565	0	1	0	0	CorrectCommission	1.346996	0.693064	1	0	70
48.237305	1.279499	city	5	1	1.177413	1.177413	0	1	0	0	CorrectCommission	0.504850	0.691165	1	0	70
49.516830	1.279553	city	4	1	1.017669	1.017669	0	1	0	0	CorrectCommission	0.975477	0.689653	1	0	70
50.796406	1.279596	city	5	1	1.289473	1.289473	0	1	0	0	CorrectCommission	0.174707	0.689885	1	0	70
52.089390	1.306372	city	10	1	1.487579	1.487579	0	1	0	0	CorrectCommission	0.408939	0.692914	1	0	70
53.415691	1.346232	city	8	1	1.300605	1.300605	0	1	0	0	CorrectCommission	0.141910	0.699284	1	0	70
54.728512	1.279408	city	10	1	1.043953	1.043953	0	1	0	0	CorrectCommission	0.898041	0.708917	1	0	70
56.014751	1.293072	city	7	1	1.627045	1.627045	0	1	0	0	CorrectCommission	0.819823	0.721153	1	0	70
57.307732	1.292889	city	3	1	1.563321	1.563321	0	1	0	0	CorrectCommission	0.632083	0.734887	1	0	70
57.954174	11.236329	break	0	0	0.000000	1.373906	0	0	0	0	ThoughtProbe	0.074044	0.748810	1	70	70
69.836960	1.292910	city	2	0	0.000000	1.104337	0	0	0	1	OmissionError	0.720143	0.761694	1	0	6.935294e+01
71.136528	1.306229	city	1	1	0.800147	0.800147	0	1	0	0	CorrectCommission	1.616325	0.772617	1	0	6.870588e+01
72.449341	1.319400	mountain	8	1	0.506873	0.506873	0	0	1	0	CommissionError	2.480349	0.781212	1	0	6.805882e+01
73.755562	1.293037	city	5	1	1.450359	1.450359	0	1	0	0	CorrectCommission	0.299284	0.787718	1	0	6.741176e+01
75.068542	1.332932	city	4	1	1.251061	1.251061	0	1	0	0	CorrectCommission	0.287875	0.792964	1	0	6.676471e+01
76.374733	1.279444	city	9	1	1.132059	1.132059	0	1	0	0	CorrectCommission	0.638469	0.798100	1	0	6.611765e+01
77.654297	1.279689	city	1	1	1.131641	1.131641	0	1	0	0	CorrectCommission	0.639700	0.804330	1	0	6.547059e+01
78.933853	1.279420	city	8	1	1.121435	1.121435	0	1	0	0	CorrectCommission	0.669770	0.812660	0	0	6.482353e+01
80.213432	1.279740	city	5	1	1.177403	1.177403	0	1	0	0	CorrectCommission	0.504880	0.823654	0	0	6.417647e+01
81.493111	1.279613	city	6	1	1.469505	1.469505	0	1	0	0	CorrectCommission	0.355690	0.837335	0	0	6.352941e+01
82.786018	1.306198	city	10	1	1.098056	1.098056	0	1	0	0	CorrectCommission	0.738647	0.853196	0	0	6.288235e+01
84.078827	1.279421	city	1	1	0.970285	0.970285	0	1	0	0	CorrectCommission	1.115078	0.870327	0	0	6.223529e+01
85.371658	1.306237	city	9	1	1.031434	1.031434	0	1	0	0	CorrectCommission	0.934924	0.887633	0	0	6.158824e+01
86.664566	1.279581	city	10	1	0.961913	0.961913	0	1	0	0	CorrectCommission	1.139743	0.904117	0	0	6.094118e+01
87.944237	1.279759	city	7	1	0.662052	0.662052	0	1	0	0	CorrectCommission	2.023170	0.919012	0	0	6.029412e+01
89.230560	1.292891	city	8	1	1.134520	1.134520	0	1	0	0	CorrectCommission	0.631219	0.931918	0	0	5.964706e+01
90.523476	1.292938	city	1	1	0.897409	0.897409	0	1	0	0	CorrectCommission	1.329779	0.942840	0	0	59
91.823059	1.306230	city	10	1	1.021411	1.021411	0	1	0	0	CorrectCommission	0.964452	0.951989	0	0	5.835294e+01
93.122612	1.292880	city	1	1	1.476226	1.476226	0	1	0	0	CorrectCommission	0.375492	0.959719	0	0	5.770588e+01
94.422173	1.306240	city	10	1	1.422441	1.422441	0	1	0	0	CorrectCommission	0.217034	0.966367	0	0	5.705882e+01
95.721680	1.292773	city	5	1	1.321163	1.321163	0	1	0	0	CorrectCommission	0.081344	0.972146	0	0	5.641176e+01
97.014519	1.292912	mountain	6	1	0.985502	0.985502	0	0	1	0	CommissionError	1.070244	0.977196	0	0	5.576471e+01
98.307426	1.292895	city	9	1	0.719006	0.719006	0	1	0	0	CorrectCommission	1.855376	0.981641	0	0	5.511765e+01
99.613647	1.319552	city	6	1	0.723580	0.723580	0	1	0	0	CorrectCommission	1.841901	0.985712	0	0	5.447059e+01
100.913284	1.279714	city	8	1	0.594751	0.594751	0	1	0	0	CorrectCommission	2.221450	0.989810	0	0	5.382353e+01
102.192955	1.279631	city	5	1	1.614487	1.614487	0	1	0	0	CorrectCommission	0.782827	0.994493	0	0	5.317647e+01
103.479172	1.292811	city	10	1	1.522844	1.522844	0	1	0	0	CorrectCommission	0.512835	1.000313	0	0	5.252941e+01
104.765327	1.279488	city	4	1	1.399003	1.399003	0	1	0	0	CorrectCommission	0.147982	1.007514	0	0	5.188235e+01
106.051598	1.293056	city	3	1	1.308218	1.308218	0	1	0	0	CorrectCommission	0.119481	1.015836	0	0	5.123529e+01
107.344681	1.293113	city	6	1	1.231276	1.231276	0	1	0	0	CorrectCommission	0.346163	1.024337	0	0	5.058824e+01
108.632057	1.281639	city	7	1	0.964070	0.964070	0	1	0	0	CorrectCommission	1.133387	1.031383	0	0	4.994118e+01
109.924866	1.303983	city	5	1	0.840007	0.840007	0	1	0	0	CorrectCommission	1.498893	1.034882	0	0	4.929412e+01
111.229904	1.306090	city	3	1	0.703023	0.703023	0	1	0	0	CorrectCommission	1.902465	1.032648	0	0	4.864706e+01
111.882950	17.341183	break	0	1	0.857500	0.857500	0	0	0	0	ThoughtProbe	1.447355	1.022841	0	48	48
129.863892	1.279521	city	6	1	1.902618	1.902618	0	1	0	0	CorrectCommission	1.631697	1.004422	0	0	4.750000e+01
131.150101	1.292905	city	10	1	1.912994	1.912994	0	1	0	0	CorrectCommission	1.662266	0.977421	0	0	4.700000e+01
132.449600	1.306079	city	6	0	0.000000	1.401261	0	0	0	1	OmissionError	0.154635	0.943035	0	0	4.650000e+01
133.749176	1.293085	city	10	1	0.885628	0.885628	0	1	0	0	CorrectCommission	1.364488	0.903594	0	0	46
135.055481	1.319505	mountain	9	1	0.884300	0.884300	0	0	1	0	CommissionError	1.368398	0.862104	0	0	4.550000e+01
136.355026	1.279606	city	6	1	1.462462	1.462462	0	1	0	0	CorrectCommission	0.334942	0.821874	0	0	45
137.641205	1.292748	city	1	1	1.371442	1.371442	0	1	0	0	CorrectCommission	0.066784	0.786011	1	0	4.450000e+01
138.927460	1.279760	city	5	1	1.508288	1.508288	0	1	0	0	CorrectCommission	0.469949	0.756893	1	0	44
140.213715	1.292751	city	7	1	1.413704	1.413704	0	1	0	0	CorrectCommission	0.191293	0.735848	1	0	4.350000e+01
141.506592	1.292990	city	5	1	1.408905	1.408905	0	1	0	0	CorrectCommission	0.177155	0.723015	1	0	4.300000e+01
142.819473	1.332791	city	6	1	1.150121	1.150121	0	1	0	0	CorrectCommission	0.585258	0.717424	1	0	4.250000e+01
144.132431	1.293114	city	5	1	1.142153	1.142153	0	1	0	0	CorrectCommission	0.608730	0.717297	1	0	42
145.425354	1.292727	city	3	1	1.100578	1.100578	0	1	0	0	CorrectCommission	0.731217	0.720488	1	0	4.150000e+01
146.718155	1.292888	mountain	1	0	0.000000	0.804447	1	0	0	0	CorrectOmission	1.603658	0.724987	1	0	41
148.004395	1.279571	city	10	1	0.709603	0.709603	0	1	0	0	CorrectCommission	1.883080	0.729312	1	0	4.050000e+01
149.290619	1.292878	city	8	1	1.271890	1.271890	0	1	0	0	CorrectCommission	0.226508	0.732831	1	0	40
150.583557	1.293005	city	7	1	1.597463	1.597463	0	1	0	0	CorrectCommission	0.732672	0.735892	1	0	3.950000e+01
151.883240	1.306374	city	6	1	1.643530	1.643530	0	1	0	0	CorrectCommission	0.868391	0.739609	1	0	39
153.176193	1.279536	city	9	1	1.580939	1.580939	0	1	0	0	CorrectCommission	0.683990	0.745605	1	0	3.850000e+01
154.455765	1.279598	city	8	1	1.502880	1.502880	0	1	0	0	CorrectCommission	0.454016	0.755605	1	0	38
155.735352	1.279583	city	4	1	1.421213	1.421213	0	1	0	0	CorrectCommission	0.213417	0.770980	1	0	3.750000e+01
157.021515	1.292732	city	7	1	1.330615	1.330615	0	1	0	0	CorrectCommission	0.053498	0.792441	1	0	37
158.341064	1.346377	city	5	1	1.639795	1.639795	0	1	0	0	CorrectCommission	0.857387	0.819770	0	0	3.650000e+01
159.654007	1.279491	city	3	1	1.618919	1.618919	0	1	0	0	CorrectCommission	0.795883	0.851793	0	0	36
160.933533	1.279556	city	4	1	1.519678	1.519678	0	1	0	0	CorrectCommission	0.503507	0.886587	0	0	3.550000e+01
162.219833	1.293045	city	9	1	1.792923	1.792923	0	1	0	0	CorrectCommission	1.308522	0.921736	0	0	35
163.506119	1.279529	city	1	1	1.766129	1.766129	0	1	0	0	CorrectCommission	1.229583	0.954710	0	0	3.450000e+01
164.785675	1.279608	city	6	1	1.898138	1.898138	0	1	0	0	CorrectCommission	1.618500	0.983289	0	0	34
166.065262	1.279555	city	3	1	1.726368	1.726368	0	1	0	0	CorrectCommission	1.112444	1.005883	0	0	3.350000e+01
167.358170	1.306270	city	6	1	1.757419	1.757419	0	1	0	0	CorrectCommission	1.203922	1.021750	0	0	33
168.651108	1.279592	city	7	1	1.769279	1.769279	0	1	0	0	CorrectCommission	1.238864	1.031057	0	0	3.250000e+01
169.930679	1.279552	city	5	1	1.853533	1.853533	0	1	0	0	CorrectCommission	1.487088	1.034761	0	0	32
171.223572	1.306249	city	1	1	1.791211	1.791211	0	1	0	0	CorrectCommission	1.303479	1.034366	0	0	3.150000e+01
171.876709	11.369579	break	0	1	1.200026	1.200026	0	0	0	0	ThoughtProbe	0.438231	1.031617	0	31	31
183.885986	1.279421	mountain	6	0	0.000000	1.318163	1	0	0	0	CorrectOmission	0.090184	1.028173	0	0	3.077500e+01
185.178848	1.306291	city	8	1	1.656006	1.656006	0	1	0	0	CorrectCommission	0.905148	1.025280	0	0	3.055000e+01
186.471756	1.279536	city	2	1	1.723942	1.723942	0	1	0	0	CorrectCommission	1.105294	1.023588	0	0	3.032500e+01
187.751419	1.279778	city	3	1	1.831073	1.831073	0	1	0	0	CorrectCommission	1.420916	1.023126	0	0	3.010000e+01
189.030991	1.279375	city	9	1	1.781018	1.781018	0	1	0	0	CorrectCommission	1.273449	1.023324	0	0	2.987500e+01
190.310486	1.279618	city	5	0	0.000000	1.199898	0	0	0	1	OmissionError	0.438608	1.023166	0	0	2.965000e+01
191.590530	1.280449	city	10	1	0.755989	0.755989	0	1	0	0	CorrectCommission	1.746420	1.021440	0	0	2.942500e+01
192.890152	1.318814	mountain	10	1	1.117572	1.117572	0	0	1	0	CommissionError	0.681149	1.016926	0	0	2.920000e+01
194.189362	1.279603	city	5	1	1.070472	1.070472	0	1	0	0	CorrectCommission	0.819913	1.008738	0	0	2.897500e+01
195.468903	1.279479	city	8	1	1.081707	1.081707	0	1	0	0	CorrectCommission	0.786814	0.996465	0	0	2.875000e+01
196.761734	1.306187	city	10	1	0.776004	0.776004	0	1	0	0	CorrectCommission	1.687453	0.980310	0	0	2.852500e+01
198.074692	1.319713	city	7	1	0.645441	0.645441	0	1	0	0	CorrectCommission	2.072108	0.961107	0	0	2.830000e+01
199.374252	1.279396	city	4	1	1.629925	1.629925	0	1	0	0	CorrectCommission	0.828310	0.940252	0	0	2.807500e+01
200.653839	1.279778	city	7	1	1.548945	1.548945	0	1	0	0	CorrectCommission	0.589730	0.919512	0	0	2.785000e+01
201.966766	1.346076	city	4	1	1.318056	1.318056	0	1	0	0	CorrectCommission	0.090499	0.900686	0	0	2.762500e+01
203.286224	1.292857	mountain	10	1	1.740144	1.740144	0	0	1	0	CommissionError	1.153028	0.885315	0	0	2.740000e+01
204.585846	1.306399	city	4	1	1.592621	1.592621	0	1	0	0	CorrectCommission	0.718407	0.874330	0	0	2.717500e+01
205.885498	1.292903	city	3	1	1.518883	1.518883	0	1	0	0	CorrectCommission	0.501165	0.867913	0	0	2.695000e+01
207.178329	1.292751	city	2	1	1.497299	1.497299	0	1	0	0	CorrectCommission	0.437575	0.865379	0	0	2.672500e+01
208.477844	1.306279	city	5	1	1.169060	1.169060	0	1	0	0	CorrectCommission	0.529460	0.865266	0	0	2.650000e+01
209.771088	1.280194	city	3	1	1.231069	1.231069	0	1	0	0	CorrectCommission	0.346772	0.865590	0	0	2.627500e+01
211.050735	1.279105	city	9	1	0.813107	0.813107	0	1	0	0	CorrectCommission	1.578143	0.864224	0	0	2.605000e+01
212.336670	1.292775	city	3	1	0.894334	0.894334	0	1	0	0	CorrectCommission	1.338837	0.859276	0	0	2.582500e+01
213.622925	1.279728	city	7	1	0.644699	0.644699	0	1	0	0	CorrectCommission	2.074294	0.849441	0	0	2.560000e+01
214.902557	1.279544	city	10	1	1.741176	1.741176	0	1	0	0	CorrectCommission	1.156069	0.834220	0	0	2.537500e+01
216.215469	1.346261	city	4	1	1.698825	1.698825	0	1	0	0	CorrectCommission	1.031297	0.814004	0	0	2.515000e+01
217.541702	1.306217	city	3	1	1.448450	1.448450	0	1	0	0	CorrectCommission	0.293660	0.789916	1	0	2.492500e+01
218.847961	1.306312	city	9	1	1.409714	1.409714	0	1	0	0	CorrectCommission	0.179537	0.763590	1	0	2.470000e+01
220.187515	1.372783	city	7	1	1.223842	1.223842	0	1	0	0	CorrectCommission	0.368066	0.736802	1	0	2.447500e+01
221.513657	1.279516	city	3	1	1.138684	1.138684	0	1	0	0	CorrectCommission	0.618952	0.711204	1	0	2.425000e+01
222.793259	1.279669	city	2	1	1.602732	1.602732	0	1	0	0	CorrectCommission	0.748195	0.688066	1	0	2.402500e+01
224.092789	1.319409	city	5	1	1.162217	1.162217	0	1	0	0	CorrectCommission	0.549618	0.668159	1	0	2.380000e+01
225.398956	1.292902	city	9	1	1.630228	1.630228	0	1	0	0	CorrectCommission	0.829202	0.651780	1	0	2.357500e+01
226.698517	1.306246	city	2	1	1.438978	1.438978	0	1	0	0	CorrectCommission	0.265753	0.638804	1	0	2.335000e+01
227.998093	1.292890	city	5	1	1.695201	1.695201	0	1	0	0	CorrectCommission	1.020621	0.628897	1	0	2.312500e+01
229.284409	1.279744	city	7	0	0.000000	1.245878	0	0	0	1	OmissionError	0.303145	0.621616	1	0	2.290000e+01
230.584061	1.319570	city	6	1	0.939964	0.939964	0	1	0	0	CorrectCommission	1.204405	0.616605	1	0	2.267500e+01
231.890289	1.292887	city	5	1	1.626419	1.626419	0	1	0	0	CorrectCommission	0.817979	0.613571	1	0	2.245000e+01
233.183182	1.292880	city	9	1	1.489516	1.489516	0	1	0	0	CorrectCommission	0.414647	0.612366	1	0	2.222500e+01
233.829620	13.115672	break	0	0	0.000000	1.336818	0	0	0	0	ThoughtProbe	0.035224	0.612927	1	22	22
247.585114	1.279642	city	10	1	1.357194	1.357194	0	1	0	0	CorrectCommission	0.024808	0.615173	1	0	2.297059e+01
248.871307	1.292757	mountain	1	1	1.739518	1.739518	0	0	1	0	CommissionError	1.151183	0.618993	1	0	2.394118e+01
250.157562	1.279734	city	2	1	1.198985	1.198985	0	1	0	0	CorrectCommission	0.441297	0.624155	1	0	2.491176e+01
251.437119	1.279391	city	8	1	1.035048	1.035048	0	1	0	0	CorrectCommission	0.924276	0.630382	1	0	2.588235e+01
252.716690	1.279737	city	1	1	1.038407	1.038407	0	1	0	0	CorrectCommission	0.914379	0.637336	1	0	2.685294e+01
254.002930	1.292752	city	5	1	1.103652	1.103652	0	1	0	0	CorrectCommission	0.722159	0.644667	1	0	2.782353e+01
255.302383	1.306148	city	6	1	1.430147	1.430147	0	1	0	0	CorrectCommission	0.239737	0.652093	1	0	2.879412e+01
256.602020	1.293128	city	9	1	1.474748	1.474748	0	1	0	0	CorrectCommission	0.371137	0.659395	1	0	2.976471e+01
257.894989	1.292793	city	7	1	1.662354	1.662354	0	1	0	0	CorrectCommission	0.923849	0.666444	1	0	3.073529e+01
259.207886	1.333048	city	5	1	1.657760	1.657760	0	1	0	0	CorrectCommission	0.910314	0.673190	1	0	3.170588e+01
260.520782	1.292746	city	10	0	0.000000	1.221790	0	0	0	1	OmissionError	0.374111	0.679644	1	0	3.267647e+01
261.827057	1.319756	city	3	1	0.872424	0.872424	0	1	0	0	CorrectCommission	1.403387	0.685855	1	0	3.364706e+01
263.159973	1.346073	city	1	1	1.127645	1.127645	0	1	0	0	CorrectCommission	0.651472	0.691834	1	0	3.461765e+01
264.472839	1.279709	city	7	1	1.371632	1.371632	0	1	0	0	CorrectCommission	0.067344	0.697662	1	0	3.558824e+01
265.772491	1.319567	city	3	1	1.458840	1.458840	0	1	0	0	CorrectCommission	0.324270	0.703453	1	0	3.655882e+01
267.078705	1.292883	mountain	5	0	0.000000	1.601076	1	0	0	0	CorrectOmission	0.743317	0.709407	1	0	3.752941e+01
268.371613	1.292905	city	9	1	1.695220	1.695220	0	1	0	0	CorrectCommission	1.020676	0.715885	1	0	3.850000e+01
269.664520	1.292913	city	1	1	1.638151	1.638151	0	1	0	0	CorrectCommission	0.852543	0.723493	1	0	3.947059e+01
270.950684	1.279439	city	8	1	1.848908	1.848908	0	1	0	0	CorrectCommission	1.473461	0.733097	1	0	4.044118e+01
272.250183	1.319550	city	9	0	0.000000	1.362630	0	0	0	1	OmissionError	0.040823	0.745769	1	0	4.141176e+01
273.569672	1.319386	city	3	1	0.915952	0.915952	0	1	0	0	CorrectCommission	1.275149	0.762713	1	0	4.238235e+01
274.902588	1.346460	city	9	1	1.245508	1.245508	0	1	0	0	CorrectCommission	0.304235	0.784950	1	0	4.335294e+01
276.235565	1.319513	city	3	1	1.110008	1.110008	0	1	0	0	CorrectCommission	0.703435	0.813151	0	0	4.432353e+01
277.535187	1.279719	city	5	1	1.071471	1.071471	0	1	0	0	CorrectCommission	0.816969	0.847273	0	0	4.529412e+01
278.814850	1.279648	city	4	1	1.411767	1.411767	0	1	0	0	CorrectCommission	0.185586	0.886456	0	0	4.626471e+01
280.101135	1.292869	city	3	1	1.519109	1.519109	0	1	0	0	CorrectCommission	0.501829	0.928938	0	0	4.723529e+01
281.387268	1.279431	city	1	0	0.000000	1.340881	0	0	0	1	OmissionError	0.023252	0.972145	0	0	4.820588e+01
282.673523	1.293055	city	6	1	0.993026	0.993026	0	1	0	0	CorrectCommission	1.048080	1.013025	0	0	4.917647e+01
283.966492	1.292890	city	2	1	0.591484	0.591484	0	1	0	0	CorrectCommission	2.231075	1.048413	0	0	5.014706e+01
285.272736	1.319593	city	3	1	0.562400	0.562400	0	1	0	0	CorrectCommission	2.316760	1.075487	0	0	5.111765e+01
286.572235	1.279445	city	8	1	0.698165	0.698165	0	1	0	0	CorrectCommission	1.916779	1.092214	0	0	5.208824e+01
287.865143	1.306352	city	2	1	1.202348	1.202348	0	1	0	0	CorrectCommission	0.431390	1.097609	0	0	5.305882e+01
289.158020	1.279411	city	7	1	1.870540	1.870540	0	1	0	0	CorrectCommission	1.537193	1.091852	0	0	5.402941e+01
289.797729	9.490230	break	0	0	0.000000	1.895456	0	0	0	0	ThoughtProbe	1.610597	1.076063	0	55	55
299.927795	1.279637	city	1	1	1.674307	1.674307	0	1	0	0	CorrectCommission	0.959065	1.052146	0	0	5.521739e+01
301.207367	1.279528	city	8	1	1.604308	1.604308	0	1	0	0	CorrectCommission	0.752837	1.022386	0	0	5.543478e+01
302.486908	1.279560	city	4	1	1.260236	1.260236	0	1	0	0	CorrectCommission	0.260843	0.989072	0	0	5.565217e+01
303.779816	1.306265	city	2	1	1.172369	1.172369	0	1	0	0	CorrectCommission	0.519712	0.954193	0	0	5.586957e+01
305.086151	1.306386	city	6	1	1.043339	1.043339	0	1	0	0	CorrectCommission	0.899849	0.919242	0	0	5.608696e+01
306.379120	1.279545	mountain	10	0	0.000000	0.922311	1	0	0	0	CorrectOmission	1.256414	0.885225	0	0	5.630435e+01
307.678589	1.319428	city	6	1	0.889488	0.889488	0	1	0	0	CorrectCommission	1.353114	0.852685	0	0	5.652174e+01
308.978119	1.279607	city	3	1	1.025074	1.025074	0	1	0	0	CorrectCommission	0.953661	0.821917	0	0	5.673913e+01
310.277740	1.319623	city	4	1	1.244211	1.244211	0	1	0	0	CorrectCommission	0.308056	0.793083	1	0	5.695652e+01
311.584045	1.292984	city	10	1	0.979623	0.979623	0	1	0	0	CorrectCommission	1.087566	0.766391	1	0	5.717391e+01
312.876984	1.292928	city	6	1	1.637799	1.637799	0	1	0	0	CorrectCommission	0.851506	0.742115	1	0	5.739130e+01
314.169891	1.292889	city	9	1	1.297510	1.297510	0	1	0	0	CorrectCommission	0.151029	0.720641	1	0	5.760870e+01
315.462708	1.292753	mountain	6	0	0.000000	1.075307	1	0	0	0	CorrectOmission	0.805669	0.702403	1	0	5.782609e+01
316.748962	1.279750	city	8	1	1.071366	1.071366	0	1	0	0	CorrectCommission	0.817280	0.687741	1	0	5.804348e+01
318.041901	1.306105	city	10	1	1.385864	1.385864	0	1	0	0	CorrectCommission	0.109274	0.676876	1	0	5.826087e+01
319.334808	1.279727	city	7	1	1.531519	1.531519	0	1	0	0	CorrectCommission	0.538393	0.669838	1	0	5.847826e+01
320.621124	1.292893	city	6	1	1.679734	1.679734	0	1	0	0	CorrectCommission	0.975052	0.666406	1	0	5.869565e+01
321.914032	1.292902	city	1	1	1.622783	1.622783	0	1	0	0	CorrectCommission	0.807268	0.666170	1	0	5.891304e+01
323.213593	1.306219	city	2	1	1.420248	1.420248	0	1	0	0	CorrectCommission	0.210573	0.668603	1	0	5.913043e+01
324.513062	1.292713	city	8	1	1.585258	1.585258	0	1	0	0	CorrectCommission	0.696714	0.673157	1	0	5.934783e+01
325.799316	1.279795	mountain	10	0	0.000000	1.242451	1	0	0	0	CorrectOmission	0.313239	0.679266	1	0	5.956522e+01
327.098877	1.319377	city	2	1	0.887915	0.887915	0	1	0	0	CorrectCommission	1.357749	0.686487	1	0	5.978261e+01
328.398376	1.279589	city	5	1	1.017735	1.017735	0	1	0	0	CorrectCommission	0.975282	0.694492	1	0	60
329.677979	1.279597	city	4	1	1.538753	1.538753	0	1	0	0	CorrectCommission	0.559705	0.703090	1	0	6.021739e+01
330.964203	1.292903	city	3	1	1.753296	1.753296	0	1	0	0	CorrectCommission	1.191777	0.712165	1	0	6.043478e+01
332.250519	1.279707	city	1	1	1.444958	1.444958	0	1	0	0	CorrectCommission	0.283372	0.721560	1	0	6.065217e+01
333.530182	1.279584	city	7	0	0.000000	1.306870	0	0	0	1	OmissionError	0.123453	0.731093	1	0	6.086957e+01
334.816406	1.292924	mountain	2	0	0.000000	1.335649	1	0	0	0	CorrectOmission	0.038665	0.740512	1	0	6.108696e+01
336.102600	1.279455	city	3	1	1.527912	1.527912	0	1	0	0	CorrectCommission	0.527766	0.749533	1	0	6.130435e+01
337.395447	1.306207	city	10	1	1.880275	1.880275	0	1	0	0	CorrectCommission	1.565873	0.757956	1	0	6.152174e+01
338.708374	1.319633	city	2	0	0.000000	1.950312	0	0	0	1	OmissionError	1.772210	0.765755	1	0	6.173913e+01
340.007935	1.279503	city	1	1	1.816803	1.816803	0	1	0	0	CorrectCommission	1.378874	0.773143	1	0	6.195652e+01
341.287567	1.279750	city	8	1	1.558529	1.558529	0	1	0	0	CorrectCommission	0.617966	0.780565	1	0	6.217391e+01
342.567139	1.279400	city	3	1	1.394391	1.394391	0	1	0	0	CorrectCommission	0.134394	0.788577	1	0	6.239130e+01
343.886688	1.359737	city	5	1	1.470135	1.470135	0	1	0	0	CorrectCommission	0.357547	0.797628	1	0	6.260870e+01
345.219604	1.306079	city	7	1	1.255817	1.255817	0	1	0	0	CorrectCommission	0.273863	0.807851	0	0	6.282609e+01
346.525848	1.306372	city	8	1	1.110302	1.110302	0	1	0	0	CorrectCommission	0.702570	0.818900	0	0	6.304348e+01
347.825500	1.292932	city	6	1	0.936438	0.936438	0	1	0	0	CorrectCommission	1.214795	0.829840	0	0	6.326087e+01
349.111664	1.279444	city	3	1	0.932270	0.932270	0	1	0	0	CorrectCommission	1.227073	0.839199	0	0	6.347826e+01
350.391144	1.279472	city	10	1	1.253529	1.253529	0	1	0	0	CorrectCommission	0.280602	0.845161	0	0	6.369565e+01
351.684021	1.306314	city	1	0	0.000000	1.121564	0	0	0	1	OmissionError	0.669388	0.845879	0	0	6.391304e+01
352.990295	1.306239	city	4	1	0.880973	0.880973	0	1	0	0	CorrectCommission	1.378200	0.839784	0	0	6.413043e+01
354.303284	1.319728	city	2	1	0.876354	0.876354	0	1	0	0	CorrectCommission	1.391809	0.825945	0	0	6.434783e+01
355.602936	1.279570	city	6	1	1.900997	1.900997	0	1	0	0	CorrectCommission	1.626921	0.804362	0	0	6.456522e+01
356.889099	1.292742	city	9	1	1.586356	1.586356	0	1	0	0	CorrectCommission	0.699947	0.776107	1	0	6.478261e+01
357.535461	8.850564	break	0	0	0.000000	1.667861	0	0	0	0	ThoughtProbe	0.940074	0.743327	1	65	65
367.025787	1.279527	city	3	1	1.732466	1.732466	0	1	0	0	CorrectCommission	1.130409	0.709008	1	0	6.482500e+01
368.305267	1.279406	city	9	1	1.367124	1.367124	0	1	0	0	CorrectCommission	0.054063	0.676629	1	0	6.465000e+01
369.604858	1.319820	city	3	1	1.232200	1.232200	0	1	0	0	CorrectCommission	0.343440	0.649735	1	0	6.447500e+01
370.911224	1.292873	mountain	2	0	0.000000	1.290185	1	0	0	0	CorrectOmission	0.172608	0.631408	1	0	6.430000e+01
372.210724	1.306147	city	7	1	1.339883	1.339883	0	1	0	0	CorrectCommission	0.026194	0.623898	1	0	6.412500e+01
373.516876	1.306181	mountain	10	1	1.180095	1.180095	0	0	1	0	CommissionError	0.496948	0.628289	1	0	6.395000e+01
374.809753	1.279579	city	1	1	1.314108	1.314108	0	1	0	0	CorrectCommission	0.102130	0.644405	1	0	6.377500e+01
376.109436	1.319763	city	6	1	1.286063	1.286063	0	1	0	0	CorrectCommission	0.184752	0.670951	1	0	6.360000e+01
377.409027	1.279404	city	5	1	1.021429	1.021429	0	1	0	0	CorrectCommission	0.964400	0.705718	1	0	6.342500e+01
378.735168	1.372866	city	8	1	1.123256	1.123256	0	1	0	0	CorrectCommission	0.664405	0.745960	1	0	6.325000e+01
380.074799	1.306415	city	2	1	0.978259	0.978259	0	1	0	0	CorrectCommission	1.091583	0.788866	1	0	6.307500e+01
381.374451	1.292896	city	4	1	0.924721	0.924721	0	1	0	0	CorrectCommission	1.249314	0.831934	0	0	6.290000e+01
382.673920	1.306063	city	2	1	0.945848	0.945848	0	1	0	0	CorrectCommission	1.187070	0.873265	0	0	6.272500e+01
383.973511	1.293081	city	7	1	1.001172	1.001172	0	1	0	0	CorrectCommission	1.024079	0.911746	0	0	6.255000e+01
385.266418	1.292766	city	10	1	0.768575	0.768575	0	1	0	0	CorrectCommission	1.709339	0.947010	0	0	6.237500e+01
386.566010	1.306378	city	4	1	1.130143	1.130143	0	1	0	0	CorrectCommission	0.644114	0.979289	0	0	6.220000e+01
387.872284	1.306162	city	7	0	0.000000	1.137593	0	0	0	1	OmissionError	0.622165	1.009139	0	0	6.202500e+01
389.185181	1.319631	city	6	1	1.116669	1.116669	0	1	0	0	CorrectCommission	0.683811	1.037113	0	0	6.185000e+01
390.484680	1.279415	city	10	1	1.393114	1.393114	0	1	0	0	CorrectCommission	0.130634	1.063484	0	0	6.167500e+01
391.797546	1.346282	city	2	1	2.005199	2.005199	0	1	0	0	CorrectCommission	1.933914	1.088058	0	0	6.150000e+01
393.117096	1.292853	city	1	1	1.715136	1.715136	0	1	0	0	CorrectCommission	1.079351	1.110108	0	0	6.132500e+01
394.416748	1.306427	city	6	1	1.737436	1.737436	0	1	0	0	CorrectCommission	1.145051	1.128529	0	0	6.115000e+01
395.709656	1.279390	city	2	1	1.747090	1.747090	0	1	0	0	CorrectCommission	1.173492	1.141951	0	0	6.097500e+01
396.995819	1.292930	city	6	1	2.043432	2.043432	0	1	0	0	CorrectCommission	2.046554	1.149017	0	0	6.080000e+01
398.288757	1.292959	city	2	1	1.712899	1.712899	0	1	0	0	CorrectCommission	1.072760	1.148602	0	0	6.062500e+01
399.615051	1.359637	mountain	1	0	0.000000	1.126764	1	0	0	0	CorrectOmission	0.654069	1.140069	0	0	6.045000e+01
400.934601	1.279449	city	9	1	0.708607	0.708607	0	1	0	0	CorrectCommission	1.886014	1.123356	0	0	6.027500e+01
402.214111	1.279566	city	10	1	0.882008	0.882008	0	1	0	0	CorrectCommission	1.375153	1.098992	0	0	6.010000e+01
403.493713	1.279657	city	1	1	1.071777	1.071777	0	1	0	0	CorrectCommission	0.816067	1.068114	0	0	5.992500e+01
404.786621	1.306139	city	8	0	0.000000	0.885355	0	0	0	1	OmissionError	1.365291	1.032253	0	0	5.975000e+01
406.092804	1.306248	city	6	1	0.777311	0.777311	0	1	0	0	CorrectCommission	1.683603	0.993142	0	0	5.957500e+01
407.405731	1.319567	city	9	1	1.202215	1.202215	0	1	0	0	CorrectCommission	0.431781	0.952492	0	0	5.940000e+01
408.705292	1.279590	city	2	1	1.182024	1.182024	0	1	0	0	CorrectCommission	0.491265	0.911807	0	0	5.922500e+01
410.011536	1.332877	city	10	1	1.361944	1.361944	0	1	0	0	CorrectCommission	0.038801	0.872186	0	0	5.905000e+01
411.331177	1.306429	city	8	1	1.633743	1.633743	0	1	0	0	CorrectCommission	0.839558	0.834333	0	0	5.887500e+01
412.637512	1.306220	city	6	1	1.388535	1.388535	0	1	0	0	CorrectCommission	0.117143	0.798570	1	0	5.870000e+01
413.950317	1.319401	city	7	1	2.055750	2.055750	0	1	0	0	CorrectCommission	2.082846	0.765005	1	0	5.852500e+01
415.263214	1.306411	city	4	0	0.000000	1.873850	0	0	0	1	OmissionError	1.546945	0.733663	1	0	5.835000e+01
416.556213	1.279569	city	2	1	1.459876	1.459876	0	1	0	0	CorrectCommission	0.327322	0.704725	1	0	5.817500e+01
421.061310	7.730637	break	0	0	0.000000	1.430867	0	0	0	0	ThoughtProbe	0.241858	0.678596	1	58	58
425.566406	1.279565	city	3	1	1.560673	1.560673	0	1	0	0	CorrectCommission	0.624285	0.655923	1	0	5.719565e+01
426.866058	1.319740	city	2	1	1.623144	1.623144	0	1	0	0	CorrectCommission	0.808332	0.637539	1	0	5.639130e+01
428.172302	1.292738	mountain	1	0	0.000000	1.407127	1	0	0	0	CorrectOmission	0.171918	0.624379	1	0	5.558696e+01
429.465210	1.293085	city	10	1	1.190692	1.190692	0	1	0	0	CorrectCommission	0.465730	0.617361	1	0	5.478261e+01
430.771545	1.319574	city	8	1	1.251907	1.251907	0	1	0	0	CorrectCommission	0.285383	0.617228	1	0	5.397826e+01
432.071075	1.279483	city	3	1	1.326262	1.326262	0	1	0	0	CorrectCommission	0.066323	0.624467	1	0	5.317391e+01
433.377258	1.332845	mountain	10	0	0.000000	1.036497	1	0	0	0	CorrectOmission	0.920007	0.639275	1	0	5.236957e+01
434.690125	1.292893	city	6	1	0.876578	0.876578	0	1	0	0	CorrectCommission	1.391150	0.661560	1	0	5.156522e+01
435.989746	1.306365	city	3	1	1.340469	1.340469	0	1	0	0	CorrectCommission	0.024466	0.690910	1	0	5.076087e+01
437.289307	1.292754	city	5	1	1.732944	1.732944	0	1	0	0	CorrectCommission	1.131816	0.726666	1	0	4.995652e+01
438.575470	1.279573	mountain	1	0	0.000000	1.572304	1	0	0	0	CorrectOmission	0.658550	0.767828	1	0	4.915217e+01
439.855042	1.279584	city	3	1	1.303320	1.303320	0	1	0	0	CorrectCommission	0.133911	0.813127	0	0	4.834783e+01
441.134644	1.279634	city	6	1	1.370763	1.370763	0	1	0	0	CorrectCommission	0.064784	0.860996	0	0	4.754348e+01
442.427643	1.306347	city	9	1	1.674809	1.674809	0	1	0	0	CorrectCommission	0.960544	0.909630	0	0	4.673913e+01
443.733948	1.306278	city	8	1	1.873642	1.873642	0	1	0	0	CorrectCommission	1.546332	0.957036	0	0	4.593478e+01
445.046783	1.319375	city	3	1	1.884593	1.884593	0	1	0	0	CorrectCommission	1.578593	1.001136	0	0	4.513043e+01
446.352905	1.292896	city	4	0	0.000000	1.902628	0	0	0	1	OmissionError	1.631728	1.039904	0	0	4.432609e+01
447.652557	1.306401	city	3	1	1.833752	1.833752	0	1	0	0	CorrectCommission	1.428809	1.071502	0	0	4.352174e+01
448.958862	1.306215	city	7	1	1.583966	1.583966	0	1	0	0	CorrectCommission	0.692907	1.094345	0	0	4.271739e+01
450.311676	1.399382	city	2	1	1.365443	1.365443	0	1	0	0	CorrectCommission	0.049110	1.107264	0	0	4.191304e+01
451.651245	1.279737	city	4	1	1.854333	1.854333	0	1	0	0	CorrectCommission	1.489445	1.109649	0	0	4.110870e+01
452.937531	1.292848	city	10	1	1.778695	1.778695	0	1	0	0	CorrectCommission	1.266606	1.101522	0	0	4.030435e+01
454.237091	1.306311	city	2	1	2.029435	2.029435	0	1	0	0	CorrectCommission	2.005318	1.083747	0	0	3.950000e+01
455.543396	1.306257	city	5	1	2.090101	2.090101	0	1	0	0	CorrectCommission	2.184048	1.058050	0	0	3.869565e+01
456.836243	1.279481	mountain	8	0	0.000000	1.787353	1	0	0	0	CorrectOmission	1.292112	1.027054	0	0	3.789130e+01
458.122498	1.293017	city	9	1	1.323846	1.323846	0	1	0	0	CorrectCommission	0.073441	0.994121	0	0	3.708696e+01
459.428711	1.319416	city	1	1	0.902234	0.902234	0	1	0	0	CorrectCommission	1.315563	0.963072	0	0	3.628261e+01
460.754852	1.332839	city	9	1	1.114860	1.114860	0	1	0	0	CorrectCommission	0.689139	0.937739	0	0	3.547826e+01
462.101135	1.359741	city	4	1	1.229994	1.229994	0	1	0	0	CorrectCommission	0.349939	0.921546	0	0	3.467391e+01
463.420776	1.279521	city	10	1	1.385283	1.385283	0	1	0	0	CorrectCommission	0.107560	0.917016	0	0	3.386957e+01
464.740265	1.359448	city	5	1	1.514794	1.514794	0	1	0	0	CorrectCommission	0.489119	0.925431	0	0	3.306522e+01
466.079834	1.319703	city	2	1	1.548400	1.548400	0	1	0	0	CorrectCommission	0.588124	0.946548	0	0	3.226087e+01
467.386078	1.292809	city	1	0	0.000000	1.099672	0	0	0	1	OmissionError	0.733887	0.978604	0	0	3.145652e+01
468.698914	1.332865	city	2	1	0.804349	0.804349	0	1	0	0	CorrectCommission	1.603946	1.018467	0	0	3.065217e+01
470.025146	1.319608	city	8	1	1.298169	1.298169	0	1	0	0	CorrectCommission	0.149086	1.061950	0	0	2.984783e+01
471.324707	1.279510	city	2	0	0.000000	1.708032	0	0	0	1	OmissionError	1.058421	1.104359	0	0	2.904348e+01
472.617615	1.306297	city	7	0	0.000000	1.969204	0	0	0	1	OmissionError	1.827869	1.140945	0	0	2.823913e+01
473.917267	1.293022	city	5	1	2.016955	2.016955	0	1	0	0	CorrectCommission	1.968551	1.167546	0	0	2.743478e+01
475.203583	1.279560	city	9	1	1.786554	1.786554	0	1	0	0	CorrectCommission	1.289759	1.181053	0	0	2.663043e+01
476.496490	1.306266	city	5	1	1.972198	1.972198	0	1	0	0	CorrectCommission	1.836690	1.179755	0	0	2.582609e+01
477.796082	1.292917	city	9	1	1.908484	1.908484	0	1	0	0	CorrectCommission	1.648981	1.163478	0	0	2.502174e+01
479.088989	1.292891	city	4	1	1.966335	1.966335	0	1	0	0	CorrectCommission	1.819416	1.133569	0	0	2.421739e+01
480.388458	1.306063	city	5	1	1.815236	1.815236	0	1	0	0	CorrectCommission	1.374258	1.092557	0	0	2.341304e+01
481.701355	1.319739	city	4	1	1.708451	1.708451	0	1	0	0	CorrectCommission	1.059656	1.043804	0	0	2.260870e+01
483.014313	1.306140	city	5	1	1.430370	1.430370	0	1	0	0	CorrectCommission	0.240394	0.991023	0	0	2.180435e+01
483.667358	9.116944	break	0	1	1.295882	1.295882	0	0	0	0	ThoughtProbe	0.155826	0.937813	0	21	21
493.437500	1.306402	city	6	1	1.607362	1.607362	0	1	0	0	CorrectCommission	0.761836	0.887273	0	0	2.142500e+01
494.763733	1.346037	city	2	1	1.238802	1.238802	0	1	0	0	CorrectCommission	0.323991	0.841801	0	0	2.185000e+01
496.089966	1.306424	city	3	1	1.070871	1.070871	0	1	0	0	CorrectCommission	0.818738	0.803026	1	0	2.227500e+01
497.396301	1.306236	city	9	1	0.989322	0.989322	0	1	0	0	CorrectCommission	1.058992	0.771864	1	0	2.270000e+01
498.742493	1.386173	city	6	1	0.990545	0.990545	0	1	0	0	CorrectCommission	1.055389	0.748685	1	0	2.312500e+01
500.095398	1.319606	city	10	1	1.004902	1.004902	0	1	0	0	CorrectCommission	1.013090	0.733499	1	0	2.355000e+01
501.401642	1.292878	city	9	1	1.081277	1.081277	0	1	0	0	CorrectCommission	0.788081	0.726061	1	0	2.397500e+01
502.694458	1.292802	mountain	4	0	0.000000	1.332146	1	0	0	0	CorrectOmission	0.048987	0.725906	1	0	2.440000e+01
503.987335	1.292904	city	7	1	1.492456	1.492456	0	1	0	0	CorrectCommission	0.423307	0.732390	1	0	2.482500e+01
505.280212	1.292852	city	1	1	1.297153	1.297153	0	1	0	0	CorrectCommission	0.152082	0.744564	1	0	2.525000e+01
506.579834	1.306433	city	10	1	1.037292	1.037292	0	1	0	0	CorrectCommission	0.917664	0.761228	1	0	2.567500e+01
507.886078	1.306052	city	1	1	1.058401	1.058401	0	1	0	0	CorrectCommission	0.855477	0.780868	1	0	2.610000e+01
509.205566	1.332922	city	9	1	1.265983	1.265983	0	1	0	0	CorrectCommission	0.243913	0.801765	1	0	2.652500e+01
510.518494	1.292926	mountain	6	0	0.000000	1.737015	1	0	0	0	CorrectOmission	1.143809	0.822120	0	0	2.695000e+01
511.818054	1.306214	city	10	1	2.023170	2.023170	0	1	0	0	CorrectCommission	1.986858	0.840174	0	0	2.737500e+01
513.124390	1.306375	mountain	3	0	0.000000	1.676121	1	0	0	0	CorrectOmission	0.964407	0.854390	0	0	2.780000e+01
514.417358	1.279574	city	1	1	1.364163	1.364163	0	1	0	0	CorrectCommission	0.045339	0.863618	0	0	2.822500e+01
515.736816	1.359396	city	8	1	1.755591	1.755591	0	1	0	0	CorrectCommission	1.198536	0.867120	0	0	2.865000e+01
517.069702	1.306397	city	7	1	1.819113	1.819113	0	1	0	0	CorrectCommission	1.385681	0.864592	0	0	2.907500e+01
518.362671	1.279532	city	2	1	1.657703	1.657703	0	1	0	0	CorrectCommission	0.910147	0.856205	0	0	2.950000e+01
519.642212	1.279495	city	1	1	1.644497	1.644497	0	1	0	0	CorrectCommission	0.871239	0.842584	0	0	2.992500e+01
520.935120	1.306400	city	8	1	1.662788	1.662788	0	1	0	0	CorrectCommission	0.925126	0.824754	0	0	3.035000e+01
522.248047	1.319425	city	6	1	1.216756	1.216756	0	1	0	0	CorrectCommission	0.388940	0.804130	1	0	3.077500e+01
523.547607	1.279684	city	2	1	1.309268	1.309268	0	1	0	0	CorrectCommission	0.116388	0.782556	1	0	3.120000e+01
524.847168	1.319455	city	8	1	1.712078	1.712078	0	1	0	0	CorrectCommission	1.070343	0.762276	1	0	3.162500e+01
526.153381	1.292906	city	6	1	2.014620	2.014620	0	1	0	0	CorrectCommission	1.961669	0.745919	1	0	3.205000e+01
527.446350	1.293017	city	1	1	1.514587	1.514587	0	1	0	0	CorrectCommission	0.488509	0.736464	1	0	3.247500e+01
528.732605	1.279494	city	9	1	1.675741	1.675741	0	1	0	0	CorrectCommission	0.963288	0.737108	1	0	3.290000e+01
530.018738	1.292834	city	2	1	1.438628	1.438628	0	1	0	0	CorrectCommission	0.264723	0.750955	1	0	3.332500e+01
531.318298	1.306249	city	9	1	1.339358	1.339358	0	1	0	0	CorrectCommission	0.027741	0.780791	1	0	3.375000e+01
532.624512	1.306225	city	8	1	1.368537	1.368537	0	1	0	0	CorrectCommission	0.058225	0.828723	0	0	3.417500e+01
533.924194	1.293098	city	6	1	1.298618	1.298618	0	1	0	0	CorrectCommission	0.147765	0.895946	0	0	3.460000e+01
535.277100	1.412685	city	2	1	1.166999	1.166999	0	1	0	0	CorrectCommission	0.535531	0.982585	0	0	3.502500e+01
536.623291	1.279772	city	4	1	1.424386	1.424386	0	1	0	0	CorrectCommission	0.222765	1.087724	0	0	3.545000e+01
537.922974	1.319529	city	10	1	1.874952	1.874952	0	1	0	0	CorrectCommission	1.550189	1.209553	0	0	3.587500e+01
539.255859	1.346250	city	5	1	2.037804	2.037804	0	1	0	0	CorrectCommission	2.029973	1.345582	0	0	3.630000e+01
540.582031	1.306097	city	7	1	1.818801	1.818801	0	1	0	0	CorrectCommission	1.384762	1.492966	0	0	3.672500e+01
541.875488	1.280829	city	9	1	1.885481	1.885481	0	1	0	0	CorrectCommission	1.581209	1.648763	0	0	3.715000e+01
543.161682	1.291611	city	5	0	0.000000	1.952160	0	0	0	1	OmissionError	1.777655	1.810074	0	0	3.757500e+01
543.807495	12.609268	break	0	0	0.000000	2.018840	0	0	0	0	ThoughtProbe	1.974102	1.974102	0	38	38
