onset	duration	trial_type	image_type	Press	ReactionTime	ReactionTime_Interpolated	CorrectOmission	CorrectCommission	CommissionError	OmissionError	response_type	nonsmoothVarianceTimeCourse	VarianceTimeCourse	In_the_Zone	ThoughtProbe	ThoughtProbe_Interpolated
0.652760	1.279532	city	4	1	1.294141	1.294141	0	1	0	0	CorrectCommission	0.859227	0.859227	0	0	65
1.932320	1.279590	city	8	1	0.909094	0.909094	0	1	0	0	CorrectCommission	0.725785	0.804734	0	0	65
3.211902	1.279573	city	5	1	1.088810	1.088810	0	1	0	0	CorrectCommission	0.014001	0.750762	1	0	65
4.498152	1.292927	city	6	1	0.896943	0.896943	0	1	0	0	CorrectCommission	0.775804	0.697869	1	0	65
5.791045	1.292858	city	8	1	0.804102	0.804102	0	1	0	0	CorrectCommission	1.157974	0.646671	1	0	65
7.077278	1.279608	city	3	1	0.937279	0.937279	0	1	0	0	CorrectCommission	0.609764	0.597851	1	0	65
8.356879	1.279594	mountain	1	1	0.915138	0.915138	0	0	1	0	CommissionError	0.700904	0.552211	1	0	65
9.636468	1.279583	city	5	1	1.074318	1.074318	0	1	0	0	CorrectCommission	0.045656	0.510628	1	0	65
10.916050	1.279583	city	10	1	1.017694	1.017694	0	1	0	0	CorrectCommission	0.278741	0.474046	1	0	65
12.195551	1.279418	city	2	1	1.199580	1.199580	0	1	0	0	CorrectCommission	0.469974	0.443386	1	0	65
13.475125	1.279730	city	3	1	1.235575	1.235575	0	1	0	0	CorrectCommission	0.618146	0.419490	1	0	65
14.754782	1.279583	city	6	1	1.074273	1.074273	0	1	0	0	CorrectCommission	0.045840	0.403014	1	0	65
16.034361	1.279576	city	10	1	1.017471	1.017471	0	1	0	0	CorrectCommission	0.279660	0.394355	1	0	65
17.313892	1.279487	mountain	1	0	0.000000	1.058127	1	0	0	0	CorrectOmission	0.112302	0.393526	1	0	65
18.593472	1.279671	city	5	1	1.122973	1.122973	0	1	0	0	CorrectCommission	0.154629	0.400128	1	0	65
19.873034	1.279455	city	3	1	1.138739	1.138739	0	1	0	0	CorrectCommission	0.219529	0.413325	1	0	65
21.159281	1.293037	city	2	1	1.155883	1.155883	0	1	0	0	CorrectCommission	0.290100	0.431907	1	0	65
22.445576	1.279555	mountain	5	0	0.000000	1.256451	1	0	0	0	CorrectOmission	0.704081	0.454334	1	0	65
23.725140	1.279573	city	2	1	1.287226	1.287226	0	1	0	0	CorrectCommission	0.830762	0.478883	1	0	65
25.004723	1.279591	city	8	1	1.094988	1.094988	0	1	0	0	CorrectCommission	0.039432	0.503781	1	0	65
26.284233	1.279430	city	5	1	1.194996	1.194996	0	1	0	0	CorrectCommission	0.451108	0.527385	1	0	65
27.570477	1.293057	city	8	1	0.943014	0.943014	0	1	0	0	CorrectCommission	0.586155	0.548303	1	0	65
28.856720	1.279431	city	9	1	1.309247	1.309247	0	1	0	0	CorrectCommission	0.921412	0.565532	1	0	65
30.136299	1.279725	city	7	1	1.448073	1.448073	0	1	0	0	CorrectCommission	1.492875	0.578512	1	0	65
31.415943	1.279564	city	9	1	1.048228	1.048228	0	1	0	0	CorrectCommission	0.153050	0.587150	1	0	65
32.695534	1.279617	city	10	1	0.940041	0.940041	0	1	0	0	CorrectCommission	0.598395	0.591780	1	0	65
33.981709	1.292734	city	3	1	1.262639	1.262639	0	1	0	0	CorrectCommission	0.729554	0.592971	1	0	65
35.267941	1.279730	city	2	1	1.231961	1.231961	0	1	0	0	CorrectCommission	0.603268	0.591467	1	0	65
36.560871	1.306130	city	1	1	1.142364	1.142364	0	1	0	0	CorrectCommission	0.234449	0.588021	1	0	65
37.853790	1.279707	mountain	5	0	0.000000	0.991298	1	0	0	0	CorrectOmission	0.387400	0.583281	1	0	65
39.133419	1.279556	city	2	1	0.883777	0.883777	0	1	0	0	CorrectCommission	0.829999	0.577708	1	0	65
40.426289	1.306179	city	8	1	0.924816	0.924816	0	1	0	0	CorrectCommission	0.661065	0.571603	1	0	65
41.725811	1.292867	city	9	1	1.207729	1.207729	0	1	0	0	CorrectCommission	0.503519	0.565183	1	0	65
43.018761	1.293033	city	1	1	0.994906	0.994906	0	1	0	0	CorrectCommission	0.372549	0.558682	1	0	65
44.311726	1.292893	city	5	1	0.999233	0.999233	0	1	0	0	CorrectCommission	0.354735	0.552465	1	0	65
45.597897	1.279453	city	4	1	0.805096	0.805096	0	1	0	0	CorrectCommission	1.153883	0.547144	1	0	65
46.877327	1.279411	city	8	1	0.925524	0.925524	0	1	0	0	CorrectCommission	0.658151	0.543591	1	0	65
48.163559	1.293048	city	9	1	1.261065	1.261065	0	1	0	0	CorrectCommission	0.723072	0.542930	1	0	65
49.463276	1.306385	city	6	1	1.013468	1.013468	0	1	0	0	CorrectCommission	0.296137	0.546388	1	0	65
50.776260	1.319584	city	2	1	0.955790	0.955790	0	1	0	0	CorrectCommission	0.533564	0.555084	1	0	65
52.082493	1.292885	city	1	1	1.036924	1.036924	0	1	0	0	CorrectCommission	0.199586	0.569782	1	0	65
53.395302	1.332732	city	9	1	1.127008	1.127008	0	1	0	0	CorrectCommission	0.171240	0.590714	1	0	65
54.741524	1.359713	city	4	1	1.106955	1.106955	0	1	0	0	CorrectCommission	0.088691	0.617395	1	0	65
56.074444	1.306123	city	9	1	0.963645	0.963645	0	1	0	0	CorrectCommission	0.501229	0.648613	1	0	65
57.373940	1.292870	city	8	1	0.876249	0.876249	0	1	0	0	CorrectCommission	0.860990	0.682526	1	0	65
58.020374	8.064194	break	0	0	0.000000	1.051207	0	0	0	0	ThoughtProbe	0.140787	0.716913	1	65	65
66.731010	1.292883	city	1	1	1.331102	1.331102	0	1	0	0	CorrectCommission	1.011375	0.749559	1	0	6.391176e+01
68.017159	1.279422	city	7	1	1.558514	1.558514	0	1	0	0	CorrectCommission	1.947496	0.778584	1	0	6.282353e+01
69.310036	1.306332	city	9	1	1.391984	1.391984	0	1	0	0	CorrectCommission	1.261991	0.802745	0	0	6.173529e+01
70.616325	1.306248	city	2	1	1.288845	1.288845	0	1	0	0	CorrectCommission	0.837427	0.821703	0	0	6.064706e+01
71.922516	1.306122	mountain	1	0	0.000000	1.353255	1	0	0	0	CorrectOmission	1.102564	0.836013	0	0	5.955882e+01
73.215446	1.279742	city	6	1	1.381969	1.381969	0	1	0	0	CorrectCommission	1.220762	0.846978	0	0	5.847059e+01
74.515114	1.319596	city	10	1	1.171742	1.171742	0	1	0	0	CorrectCommission	0.355385	0.856382	0	0	5.738235e+01
75.821365	1.292908	city	7	1	1.085072	1.085072	0	1	0	0	CorrectCommission	0.001388	0.866179	0	0	5.629412e+01
77.107544	1.279443	city	8	1	0.929012	0.929012	0	1	0	0	CorrectCommission	0.643796	0.878047	0	0	5.520588e+01
78.393692	1.292854	city	6	1	0.874232	0.874232	0	1	0	0	CorrectCommission	0.869292	0.893085	0	0	5.411765e+01
79.686653	1.293073	city	1	1	0.856487	0.856487	0	1	0	0	CorrectCommission	0.942336	0.911661	0	0	5.302941e+01
80.999634	1.332891	city	7	1	0.749108	0.749108	0	1	0	0	CorrectCommission	1.384352	0.933299	0	0	5.194118e+01
82.305870	1.279579	city	8	1	0.925175	0.925175	0	1	0	0	CorrectCommission	0.659591	0.956805	0	0	5.085294e+01
83.585373	1.279419	city	7	1	0.969411	0.969411	0	1	0	0	CorrectCommission	0.477494	0.980452	0	0	4.976471e+01
84.871613	1.293064	city	3	1	0.843865	0.843865	0	1	0	0	CorrectCommission	0.994296	1.002240	0	0	4.867647e+01
86.164520	1.292751	city	1	1	0.773603	0.773603	0	1	0	0	CorrectCommission	1.283521	1.020177	0	0	4.758824e+01
87.464111	1.306428	city	3	1	0.668674	0.668674	0	1	0	0	CorrectCommission	1.715455	1.032606	0	0	4.650000e+01
88.777122	1.319603	city	2	1	0.781096	0.781096	0	1	0	0	CorrectCommission	1.252680	1.038402	0	0	4.541176e+01
90.083267	1.292685	city	6	1	0.769067	0.769067	0	1	0	0	CorrectCommission	1.302195	1.037143	0	0	4.432353e+01
91.396057	1.332899	city	1	1	0.907726	0.907726	0	1	0	0	CorrectCommission	0.731417	1.029059	0	0	4.323529e+01
92.702309	1.279604	city	5	1	1.618298	1.618298	0	1	0	0	CorrectCommission	2.193590	1.014985	0	0	4.214706e+01
93.988647	1.293062	city	10	1	0.874656	0.874656	0	1	0	0	CorrectCommission	0.867547	0.996103	0	0	4.105882e+01
95.301544	1.332742	city	8	1	0.911871	0.911871	0	1	0	0	CorrectCommission	0.714352	0.973776	0	0	3.997059e+01
96.641083	1.346329	city	10	1	1.123392	1.123392	0	1	0	0	CorrectCommission	0.156353	0.949242	0	0	3.888235e+01
97.954048	1.279606	mountain	5	0	0.000000	1.098591	1	0	0	0	CorrectOmission	0.054263	0.923530	0	0	3.779412e+01
99.260300	1.332890	city	4	1	1.177289	1.177289	0	1	0	0	CorrectCommission	0.378217	0.897369	0	0	3.670588e+01
100.579796	1.306104	city	3	1	1.699305	1.699305	0	1	0	0	CorrectCommission	2.527051	0.871267	0	0	3.561765e+01
101.886047	1.306396	city	6	0	0.000000	1.405554	0	0	0	1	OmissionError	1.317848	0.845575	0	0	3.452941e+01
103.185692	1.292904	city	8	1	0.911918	0.911918	0	1	0	0	CorrectCommission	0.714160	0.820804	0	0	3.344118e+01
104.478592	1.292889	city	10	1	0.834282	0.834282	0	1	0	0	CorrectCommission	1.033741	0.797649	0	0	3.235294e+01
105.764740	1.279415	city	2	1	1.145541	1.145541	0	1	0	0	CorrectCommission	0.247528	0.777019	1	0	3.126471e+01
107.051003	1.293102	city	9	1	1.280266	1.280266	0	1	0	0	CorrectCommission	0.802113	0.760040	1	0	3.017647e+01
108.350586	1.306060	city	5	1	1.207468	1.207468	0	1	0	0	CorrectCommission	0.502446	0.747840	1	0	2.908824e+01
109.003609	10.276643	break	0	0	0.000000	1.186505	0	0	0	0	ThoughtProbe	0.416151	0.741393	1	28	28
119.920021	1.279538	mountain	1	1	1.106959	1.106959	0	0	1	0	CommissionError	0.088707	0.741300	1	0	2.804348e+01
121.199585	1.279588	city	9	1	0.858413	0.858413	0	1	0	0	CorrectCommission	0.934408	0.747609	1	0	2.808696e+01
122.499252	1.319734	city	2	1	1.276548	1.276548	0	1	0	0	CorrectCommission	0.786806	0.759672	1	0	2.813043e+01
123.812149	1.306060	city	5	1	1.417179	1.417179	0	1	0	0	CorrectCommission	1.365704	0.776152	1	0	2.817391e+01
125.118301	1.306244	city	8	1	1.113500	1.113500	0	1	0	0	CorrectCommission	0.115635	0.795048	0	0	2.821739e+01
126.424614	1.306389	city	2	1	1.318925	1.318925	0	1	0	0	CorrectCommission	0.961250	0.813896	0	0	2.826087e+01
127.724274	1.292921	city	5	1	1.207278	1.207278	0	1	0	0	CorrectCommission	0.501661	0.829926	0	0	2.830435e+01
129.010437	1.279404	city	7	1	1.198500	1.198500	0	1	0	0	CorrectCommission	0.465530	0.840469	0	0	2.834783e+01
130.289963	1.279656	mountain	6	0	0.000000	0.891207	1	0	0	0	CorrectOmission	0.799416	0.843252	0	0	2.839130e+01
131.576218	1.292840	city	7	1	0.609556	0.609556	0	1	0	0	CorrectCommission	1.958806	0.836809	0	0	2.843478e+01
132.882462	1.319660	city	3	1	0.677707	0.677707	0	1	0	0	CorrectCommission	1.678268	0.820769	0	0	2.847826e+01
134.182129	1.279662	city	10	1	0.558937	0.558937	0	1	0	0	CorrectCommission	2.167174	0.795998	0	0	2.852174e+01
135.475082	1.306269	city	9	1	1.145741	1.145741	0	1	0	0	CorrectCommission	0.248350	0.764558	1	0	2.856522e+01
136.774628	1.292826	city	5	1	1.196134	1.196134	0	1	0	0	CorrectCommission	0.455788	0.729532	1	0	2.860870e+01
138.074142	1.306176	city	4	1	1.166338	1.166338	0	1	0	0	CorrectCommission	0.333139	0.694489	1	0	2.865217e+01
139.373688	1.292920	city	10	1	1.097213	1.097213	0	1	0	0	CorrectCommission	0.048591	0.663097	1	0	2.869565e+01
140.659882	1.279489	city	5	1	1.262891	1.262891	0	1	0	0	CorrectCommission	0.730591	0.638584	1	0	2.873913e+01
141.946045	1.292819	city	4	1	1.124425	1.124425	0	1	0	0	CorrectCommission	0.160604	0.623259	1	0	2.878261e+01
143.245697	1.306493	mountain	2	0	0.000000	1.112633	1	0	0	0	CorrectOmission	0.112064	0.618287	1	0	2.882609e+01
144.545395	1.292909	city	2	1	1.138383	1.138383	0	1	0	0	CorrectCommission	0.218063	0.623571	1	0	2.886957e+01
145.851639	1.319567	city	5	1	1.112543	1.112543	0	1	0	0	CorrectCommission	0.111695	0.637824	1	0	2.891304e+01
147.164551	1.306258	city	3	1	0.912635	0.912635	0	1	0	0	CorrectCommission	0.711209	0.658898	1	0	2.895652e+01
148.477448	1.319522	city	6	1	0.884932	0.884932	0	1	0	0	CorrectCommission	0.825245	0.684189	1	0	29
149.790253	1.306116	city	10	1	0.702631	0.702631	0	1	0	0	CorrectCommission	1.575674	0.711048	1	0	2.904348e+01
151.103165	1.319706	city	8	1	0.774819	0.774819	0	1	0	0	CorrectCommission	1.278518	0.737189	1	0	2.908696e+01
152.429474	1.332896	city	1	1	0.832027	0.832027	0	1	0	0	CorrectCommission	1.043023	0.760981	1	0	2.913043e+01
153.735626	1.279416	city	2	1	0.945929	0.945929	0	1	0	0	CorrectCommission	0.574158	0.781623	1	0	2.917391e+01
155.021881	1.293092	city	5	1	1.013386	1.013386	0	1	0	0	CorrectCommission	0.296475	0.799099	0	0	2.921739e+01
156.328201	1.319543	city	4	1	1.119705	1.119705	0	1	0	0	CorrectCommission	0.141175	0.814065	0	0	2.926087e+01
157.654343	1.332739	city	8	1	0.553801	0.553801	0	1	0	0	CorrectCommission	2.188319	0.827624	0	0	2.930435e+01
158.967255	1.293079	city	6	1	0.978864	0.978864	0	1	0	0	CorrectCommission	0.438585	0.841005	0	0	2.934783e+01
160.260147	1.292729	city	7	1	0.899993	0.899993	0	1	0	0	CorrectCommission	0.763247	0.855405	0	0	2.939130e+01
161.559723	1.306415	city	10	1	0.814247	0.814247	0	1	0	0	CorrectCommission	1.116213	0.871694	0	0	2.943478e+01
162.865967	1.306074	city	1	1	1.041519	1.041519	0	1	0	0	CorrectCommission	0.180670	0.890269	0	0	2.947826e+01
164.158890	1.279752	city	10	1	0.930182	0.930182	0	1	0	0	CorrectCommission	0.638978	0.911054	0	0	2.952174e+01
165.438461	1.279418	mountain	3	0	0.000000	0.885910	1	0	0	0	CorrectOmission	0.821222	0.933424	0	0	2.956522e+01
166.744629	1.332909	city	5	1	0.873443	0.873443	0	1	0	0	CorrectCommission	0.872540	0.956318	0	0	2.960870e+01
168.077545	1.332933	city	7	1	0.857523	0.857523	0	1	0	0	CorrectCommission	0.938071	0.978389	0	0	2.965217e+01
169.383865	1.279684	city	2	1	1.731223	1.731223	0	1	0	0	CorrectCommission	2.658438	0.998166	0	0	2.969565e+01
170.696762	1.346121	city	9	1	1.146074	1.146074	0	1	0	0	CorrectCommission	0.249721	1.014221	0	0	2.973913e+01
172.016281	1.292921	city	10	1	0.987848	0.987848	0	1	0	0	CorrectCommission	0.401603	1.025404	0	0	2.978261e+01
173.302490	1.279503	city	7	1	1.583208	1.583208	0	1	0	0	CorrectCommission	2.049147	1.030806	0	0	2.982609e+01
174.582123	1.279740	city	10	1	1.395806	1.395806	0	1	0	0	CorrectCommission	1.277721	1.029833	0	0	2.986957e+01
175.868439	1.292891	city	4	1	1.384398	1.384398	0	1	0	0	CorrectCommission	1.230761	1.022254	0	0	2.991304e+01
177.181320	1.332895	city	3	1	1.136526	1.136526	0	1	0	0	CorrectCommission	0.210419	1.008124	0	0	2.995652e+01
177.847778	9.050212	break	0	1	0.920730	0.920730	0	0	0	0	ThoughtProbe	0.677887	0.987781	0	30	30
187.544510	1.293050	city	1	1	1.380938	1.380938	0	1	0	0	CorrectCommission	1.216521	0.961779	0	0	2.992500e+01
188.850815	1.319565	city	9	1	1.436330	1.436330	0	1	0	0	CorrectCommission	1.444538	0.930899	0	0	2.985000e+01
190.163712	1.306234	city	3	1	1.579313	1.579313	0	1	0	0	CorrectCommission	2.033114	0.896108	0	0	2.977500e+01
191.489960	1.346252	mountain	1	0	0.000000	1.328643	1	0	0	0	CorrectOmission	1.001250	0.858501	0	0	2.970000e+01
192.809509	1.292831	city	1	1	1.041777	1.041777	0	1	0	0	CorrectCommission	0.179605	0.819275	0	0	2.962500e+01
194.102402	1.292960	city	3	1	1.076176	1.076176	0	1	0	0	CorrectCommission	0.038006	0.779571	1	0	2.955000e+01
195.408661	1.319567	city	8	1	1.121344	1.121344	0	1	0	0	CorrectCommission	0.147925	0.740461	1	0	2.947500e+01
196.708252	1.279600	mountain	9	0	0.000000	0.902832	1	0	0	0	CorrectOmission	0.751563	0.702910	1	0	2.940000e+01
198.034393	1.372701	city	5	1	0.719762	0.719762	0	1	0	0	CorrectCommission	1.505156	0.667773	1	0	2.932500e+01
199.373871	1.306262	city	2	1	0.871257	0.871257	0	1	0	0	CorrectCommission	0.881538	0.635905	1	0	2.925000e+01
200.673447	1.292887	city	9	1	1.035230	1.035230	0	1	0	0	CorrectCommission	0.206555	0.608198	1	0	2.917500e+01
201.973007	1.306238	city	4	1	1.155813	1.155813	0	1	0	0	CorrectCommission	0.289812	0.585634	1	0	2.910000e+01
203.272690	1.293106	city	3	1	1.298577	1.298577	0	1	0	0	CorrectCommission	0.877488	0.569263	1	0	2.902500e+01
204.572250	1.306035	city	2	1	1.238110	1.238110	0	1	0	0	CorrectCommission	0.628579	0.560098	1	0	2.895000e+01
205.898483	1.346414	city	6	1	1.127828	1.127828	0	1	0	0	CorrectCommission	0.174613	0.559015	1	0	2.887500e+01
207.231384	1.319397	city	8	1	1.177842	1.177842	0	1	0	0	CorrectCommission	0.380491	0.566565	1	0	2.880000e+01
208.537537	1.292914	city	10	1	1.171041	1.171041	0	1	0	0	CorrectCommission	0.352498	0.582789	1	0	2.872500e+01
209.837250	1.306507	city	9	1	1.061243	1.061243	0	1	0	0	CorrectCommission	0.099476	0.607064	1	0	2.865000e+01
211.156799	1.332581	city	4	1	1.217423	1.217423	0	1	0	0	CorrectCommission	0.543426	0.638116	1	0	2.857500e+01
212.496246	1.346322	city	1	1	1.044122	1.044122	0	1	0	0	CorrectCommission	0.169954	0.674062	1	0	2.850000e+01
213.849228	1.359630	city	3	1	0.929191	0.929191	0	1	0	0	CorrectCommission	0.643058	0.712633	1	0	2.842500e+01
215.175507	1.292924	city	6	1	0.911439	0.911439	0	1	0	0	CorrectCommission	0.716131	0.751393	1	0	2.835000e+01
216.481674	1.319411	city	2	1	0.756290	0.756290	0	1	0	0	CorrectCommission	1.354791	0.788082	0	0	2.827500e+01
217.814560	1.346383	city	5	1	0.688085	0.688085	0	1	0	0	CorrectCommission	1.635550	0.820887	0	0	2.820000e+01
219.140884	1.306240	mountain	2	1	0.658266	0.658266	0	0	1	0	CommissionError	1.758295	0.848642	0	0	2.812500e+01
220.440430	1.292876	city	6	1	0.901301	0.901301	0	1	0	0	CorrectCommission	0.757864	0.870902	0	0	2.805000e+01
221.739960	1.306176	city	4	1	0.895788	0.895788	0	1	0	0	CorrectCommission	0.780557	0.887931	0	0	2.797500e+01
223.032883	1.279655	city	5	1	1.051518	1.051518	0	1	0	0	CorrectCommission	0.139510	0.900457	0	0	2.790000e+01
224.319016	1.292634	city	4	1	1.333539	1.333539	0	1	0	0	CorrectCommission	1.021405	0.909507	0	0	2.782500e+01
225.625259	1.319857	city	5	1	1.017236	1.017236	0	1	0	0	CorrectCommission	0.280630	0.916126	0	0	2.775000e+01
226.944962	1.319541	city	4	1	0.914748	0.914748	0	1	0	0	CorrectCommission	0.702512	0.921266	0	0	2.767500e+01
228.271103	1.332736	city	7	1	0.664356	0.664356	0	1	0	0	CorrectCommission	1.733230	0.925649	0	0	2.760000e+01
229.603943	1.332942	city	4	1	0.970513	0.970513	0	1	0	0	CorrectCommission	0.472961	0.929719	0	0	2.752500e+01
230.923508	1.306187	city	6	1	1.663507	1.663507	0	1	0	0	CorrectCommission	2.379692	0.933702	0	0	2.745000e+01
232.243011	1.332812	city	10	1	1.283460	1.283460	0	1	0	0	CorrectCommission	0.815262	0.937454	0	0	2.737500e+01
233.582672	1.346525	city	6	1	1.297216	1.297216	0	1	0	0	CorrectCommission	0.871885	0.940598	0	0	2.730000e+01
234.908951	1.306021	city	1	1	1.153592	1.153592	0	1	0	0	CorrectCommission	0.280670	0.942394	0	0	2.722500e+01
236.215164	1.306413	city	10	1	1.096648	1.096648	0	1	0	0	CorrectCommission	0.046266	0.941810	0	0	2.715000e+01
237.514832	1.292917	city	1	1	1.306916	1.306916	0	1	0	0	CorrectCommission	0.911813	0.937582	0	0	2.707500e+01
238.161285	8.796931	break	0	1	1.307021	1.307021	0	0	0	0	ThoughtProbe	0.912248	0.928376	0	27	27
247.604691	1.292949	city	6	0	0.000000	1.391519	0	0	0	1	OmissionError	1.260077	0.913083	0	0	27
248.897598	1.292853	mountain	6	0	0.000000	1.496033	1	0	0	0	CorrectOmission	1.690300	0.891088	0	0	27
250.183853	1.279673	city	4	1	1.556187	1.556187	0	1	0	0	CorrectCommission	1.937916	0.862518	0	0	27
251.490097	1.332809	city	9	1	1.507603	1.507603	0	1	0	0	CorrectCommission	1.737923	0.828361	0	0	27
252.809631	1.306257	city	10	1	1.071308	1.071308	0	1	0	0	CorrectCommission	0.058044	0.790433	0	0	27
254.109299	1.293065	city	9	1	1.259354	1.259354	0	1	0	0	CorrectCommission	0.716030	0.751191	1	0	27
255.408875	1.306108	city	5	1	1.046046	1.046046	0	1	0	0	CorrectCommission	0.162035	0.713316	1	0	27
256.728394	1.332912	city	1	1	1.041540	1.041540	0	1	0	0	CorrectCommission	0.180581	0.679396	1	0	27
258.061310	1.332912	city	5	1	1.072109	1.072109	0	1	0	0	CorrectCommission	0.054747	0.651473	1	0	27
259.394257	1.332966	city	3	1	1.163125	1.163125	0	1	0	0	CorrectCommission	0.319913	0.630880	1	0	27
260.707092	1.292748	city	9	1	1.214548	1.214548	0	1	0	0	CorrectCommission	0.531590	0.618084	1	0	27
262.019989	1.333056	city	6	1	0.978648	0.978648	0	1	0	0	CorrectCommission	0.439474	0.612798	1	0	27
263.326324	1.279579	city	4	1	0.783065	0.783065	0	1	0	0	CorrectCommission	1.244571	0.614234	1	0	27
264.625824	1.319430	mountain	3	1	0.912143	0.912143	0	0	1	0	CommissionError	0.713234	0.621341	1	0	27
265.947021	1.322950	city	3	1	1.281663	1.281663	0	1	0	0	CorrectCommission	0.807864	0.633208	1	0	27
267.306641	1.396286	city	8	1	1.043461	1.043461	0	1	0	0	CorrectCommission	0.172674	0.649176	1	0	27
268.657928	1.306296	city	9	1	0.890321	0.890321	0	1	0	0	CorrectCommission	0.803063	0.669042	1	0	27
269.950745	1.279369	city	2	1	0.860567	0.860567	0	1	0	0	CorrectCommission	0.925542	0.692974	1	0	27
271.243652	1.306419	city	4	1	0.992778	0.992778	0	1	0	0	CorrectCommission	0.381306	0.721431	1	0	27
272.556641	1.319538	city	8	1	0.871576	0.871576	0	1	0	0	CorrectCommission	0.880225	0.754922	1	0	27
273.882812	1.332807	city	6	1	0.965311	0.965311	0	1	0	0	CorrectCommission	0.494374	0.793669	0	0	27
275.215698	1.332970	city	8	1	0.805003	0.805003	0	1	0	0	CorrectCommission	1.154266	0.837419	0	0	27
276.528564	1.292805	city	3	1	1.018405	1.018405	0	1	0	0	CorrectCommission	0.275816	0.885180	0	0	27
277.848114	1.346263	city	5	1	1.101969	1.101969	0	1	0	0	CorrectCommission	0.068169	0.935189	0	0	27
279.200989	1.359492	city	1	1	0.989007	0.989007	0	1	0	0	CorrectCommission	0.396832	0.985028	0	0	27
280.527252	1.293051	city	8	1	0.728203	0.728203	0	1	0	0	CorrectCommission	1.470406	1.031840	0	0	27
281.820221	1.292882	city	6	1	0.569262	0.569262	0	1	0	0	CorrectCommission	2.124675	1.072721	0	0	27
283.113037	1.292775	city	7	1	0.851493	0.851493	0	1	0	0	CorrectCommission	0.962893	1.105175	0	0	27
284.405975	1.293087	city	10	1	1.747375	1.747375	0	1	0	0	CorrectCommission	2.724926	1.127543	0	0	27
285.725555	1.346085	city	5	1	1.582649	1.582649	0	1	0	0	CorrectCommission	2.046845	1.139203	0	0	27
287.071686	1.346176	city	6	1	1.108580	1.108580	0	1	0	0	CorrectCommission	0.095382	1.140785	0	0	27
288.384674	1.279747	city	5	1	0.894493	0.894493	0	1	0	0	CorrectCommission	0.785890	1.134074	0	0	27
289.684326	1.319556	city	4	1	0.849107	0.849107	0	1	0	0	CorrectCommission	0.972717	1.121664	0	0	27
294.329437	7.970721	break	0	1	0.638753	0.638753	0	0	0	0	ThoughtProbe	1.838619	1.106645	0	27	27
298.954529	1.279411	city	3	1	1.444053	1.444053	0	1	0	0	CorrectCommission	1.476328	1.092089	0	0	2.767391e+01
300.234009	1.279579	city	2	1	0.911910	0.911910	0	1	0	0	CorrectCommission	0.714192	1.080634	0	0	2.834783e+01
301.513611	1.279604	city	4	1	1.043391	1.043391	0	1	0	0	CorrectCommission	0.172962	1.074071	0	0	2.902174e+01
302.793243	1.279653	city	7	1	0.911801	0.911801	0	1	0	0	CorrectCommission	0.714640	1.073033	0	0	2.969565e+01
304.072845	1.279572	city	6	1	0.908492	0.908492	0	1	0	0	CorrectCommission	0.728262	1.076875	0	0	3.036957e+01
305.352448	1.279654	city	4	1	0.985368	0.985368	0	1	0	0	CorrectCommission	0.411811	1.083790	0	0	3.104348e+01
306.632019	1.279439	city	8	1	0.697618	0.697618	0	1	0	0	CorrectCommission	1.596308	1.091107	0	0	3.171739e+01
307.911591	1.279732	city	1	1	1.442249	1.442249	0	1	0	0	CorrectCommission	1.468900	1.095694	0	0	3.239130e+01
309.191254	1.279584	city	5	1	1.177475	1.177475	0	1	0	0	CorrectCommission	0.378983	1.094540	0	0	3.306522e+01
310.470734	1.279395	city	3	1	1.728192	1.728192	0	1	0	0	CorrectCommission	2.645961	1.085325	0	0	3.373913e+01
311.750336	1.279772	city	4	1	1.724864	1.724864	0	1	0	0	CorrectCommission	2.632262	1.066718	0	0	3.441304e+01
313.029999	1.279569	mountain	9	0	0.000000	1.249269	1	0	0	0	CorrectOmission	0.674518	1.038796	0	0	3.508696e+01
314.309479	1.279432	mountain	3	1	0.818030	0.818030	0	0	1	0	CommissionError	1.100641	1.003099	0	0	3.576087e+01
315.589020	1.279631	mountain	10	0	0.000000	0.947769	1	0	0	0	CorrectOmission	0.566584	0.962313	0	0	3.643478e+01
316.868683	1.279658	city	4	1	1.231083	1.231083	0	1	0	0	CorrectCommission	0.599656	0.920030	0	0	3.710870e+01
318.148285	1.279579	city	2	1	1.260573	1.260573	0	1	0	0	CorrectCommission	0.721049	0.880315	0	0	3.778261e+01
319.427795	1.279434	city	10	1	1.335268	1.335268	0	1	0	0	CorrectCommission	1.028523	0.847202	0	0	3.845652e+01
320.707367	1.279742	city	8	1	1.193129	1.193129	0	1	0	0	CorrectCommission	0.443420	0.824301	0	0	3.913043e+01
321.986969	1.279424	city	2	1	1.190693	1.190693	0	1	0	0	CorrectCommission	0.433394	0.814447	0	0	3.980435e+01
323.266541	1.279737	city	1	1	1.127705	1.127705	0	1	0	0	CorrectCommission	0.174108	0.819429	0	0	4.047826e+01
324.546204	1.279581	city	10	1	1.133626	1.133626	0	1	0	0	CorrectCommission	0.198480	0.839929	0	0	4.115217e+01
325.825745	1.279486	city	4	1	1.391349	1.391349	0	1	0	0	CorrectCommission	1.259376	0.875498	0	0	4.182609e+01
327.105255	1.279564	mountain	4	0	0.000000	1.162685	1	0	0	0	CorrectOmission	0.318099	0.924691	0	0	4.250000e+01
328.391510	1.292943	city	6	1	0.856994	0.856994	0	1	0	0	CorrectCommission	0.940251	0.985298	0	0	4.317391e+01
329.677795	1.279644	city	9	1	0.883638	0.883638	0	1	0	0	CorrectCommission	0.830574	1.054482	0	0	4.384783e+01
330.964081	1.292915	city	6	1	0.743448	0.743448	0	1	0	0	CorrectCommission	1.407652	1.129037	0	0	4.452174e+01
332.250336	1.279556	city	4	1	0.644348	0.644348	0	1	0	0	CorrectCommission	1.815590	1.205547	0	0	4.519565e+01
333.529816	1.279436	city	9	1	0.909216	0.909216	0	1	0	0	CorrectCommission	0.725283	1.280546	0	0	4.586957e+01
334.809387	1.279721	city	7	1	0.489726	0.489726	0	1	0	0	CorrectCommission	2.452078	1.350621	0	0	4.654348e+01
336.089050	1.279557	city	5	1	1.081842	1.081842	0	1	0	0	CorrectCommission	0.014684	1.412466	0	0	4.721739e+01
337.375275	1.292905	city	1	1	1.348185	1.348185	0	1	0	0	CorrectCommission	1.081693	1.463111	0	0	4.789130e+01
338.661530	1.279621	city	10	1	1.977227	1.977227	0	1	0	0	CorrectCommission	3.671092	1.499878	0	0	4.856522e+01
339.941132	1.279589	city	3	0	0.000000	1.531122	0	0	0	1	OmissionError	1.834738	1.520632	0	0	4.923913e+01
341.220642	1.279438	city	7	1	0.857550	0.857550	0	1	0	0	CorrectCommission	0.937960	1.524091	0	0	4.991304e+01
342.500153	1.279560	city	10	1	0.804194	0.804194	0	1	0	0	CorrectCommission	1.157596	1.509882	0	0	5.058696e+01
343.779785	1.279738	city	7	1	1.555442	1.555442	0	1	0	0	CorrectCommission	1.934852	1.478738	0	0	5.126087e+01
345.059448	1.279548	city	8	1	1.975233	1.975233	0	1	0	0	CorrectCommission	3.662884	1.432524	0	0	5.193478e+01
346.338959	1.279506	city	6	0	0.000000	1.490830	0	0	0	1	OmissionError	1.668879	1.374173	0	0	5.260870e+01
347.618561	1.279674	city	8	1	0.855716	0.855716	0	1	0	0	CorrectCommission	0.945509	1.307528	0	0	5.328261e+01
348.898163	1.279548	city	7	1	0.823378	0.823378	0	1	0	0	CorrectCommission	1.078626	1.236878	0	0	5.395652e+01
350.177734	1.279597	city	6	1	0.963969	0.963969	0	1	0	0	CorrectCommission	0.499896	1.166505	0	0	5.463043e+01
351.457245	1.279421	city	10	1	0.908268	0.908268	0	1	0	0	CorrectCommission	0.729185	1.100211	0	0	5.530435e+01
352.736786	1.279637	city	4	1	1.282535	1.282535	0	1	0	0	CorrectCommission	0.811451	1.040869	0	0	5.597826e+01
354.023041	1.292887	city	9	1	1.084236	1.084236	0	1	0	0	CorrectCommission	0.004829	0.990122	0	0	5.665217e+01
355.309326	1.279691	city	7	1	1.230775	1.230775	0	1	0	0	CorrectCommission	0.598386	0.948336	0	0	5.732609e+01
359.801270	7.704156	break	0	0	0.000000	1.358533	0	0	0	0	ThoughtProbe	1.124290	0.914665	0	58	58
364.293060	1.279426	city	3	1	1.389387	1.389387	0	1	0	0	CorrectCommission	1.251299	0.887346	0	0	5.770588e+01
365.572632	1.279719	city	9	1	1.245216	1.245216	0	1	0	0	CorrectCommission	0.657831	0.864097	0	0	5.741176e+01
366.852264	1.279571	city	3	1	1.501413	1.501413	0	1	0	0	CorrectCommission	1.712446	0.842575	0	0	5.711765e+01
368.131836	1.279580	city	6	1	0.989716	0.989716	0	1	0	0	CorrectCommission	0.393914	0.820734	0	0	5.682353e+01
369.411407	1.279576	mountain	8	0	0.000000	1.209399	1	0	0	0	CorrectOmission	0.510396	0.797161	0	0	5.652941e+01
370.690948	1.279504	city	5	1	1.527516	1.527516	0	1	0	0	CorrectCommission	1.819897	0.771235	1	0	5.623529e+01
371.970459	1.279518	city	2	1	1.311118	1.311118	0	1	0	0	CorrectCommission	0.929112	0.743098	1	0	5.594118e+01
373.250000	1.279551	city	1	1	1.152520	1.152520	0	1	0	0	CorrectCommission	0.276257	0.713569	1	0	5.564706e+01
374.536346	1.293113	city	7	1	1.330697	1.330697	0	1	0	0	CorrectCommission	1.009709	0.683937	1	0	5.535294e+01
375.822662	1.279537	city	3	1	1.074867	1.074867	0	1	0	0	CorrectCommission	0.043396	0.655638	1	0	5.505882e+01
377.102234	1.279607	city	7	1	1.017276	1.017276	0	1	0	0	CorrectCommission	0.280463	0.630034	1	0	5.476471e+01
378.381836	1.279577	city	9	1	0.920662	0.920662	0	1	0	0	CorrectCommission	0.678167	0.608145	1	0	5.447059e+01
379.661377	1.279543	mountain	1	1	1.044269	1.044269	0	0	1	0	CommissionError	0.169350	0.590497	1	0	5.417647e+01
380.940918	1.279512	city	1	1	0.911175	0.911175	0	1	0	0	CorrectCommission	0.717220	0.577168	1	0	5.388235e+01
382.220490	1.279660	city	3	1	0.909745	0.909745	0	1	0	0	CorrectCommission	0.723104	0.567784	1	0	5.358824e+01
383.500122	1.279574	city	8	1	0.938916	0.938916	0	1	0	0	CorrectCommission	0.603027	0.561653	1	0	5.329412e+01
384.779694	1.279605	city	2	1	1.177489	1.177489	0	1	0	0	CorrectCommission	0.379038	0.557933	1	0	53
386.059296	1.279564	city	1	1	1.086372	1.086372	0	1	0	0	CorrectCommission	0.003966	0.555772	1	0	5.270588e+01
387.338867	1.279592	city	7	1	1.420901	1.420901	0	1	0	0	CorrectCommission	1.381022	0.554474	1	0	5.241176e+01
388.618378	1.279419	city	2	1	1.310346	1.310346	0	1	0	0	CorrectCommission	0.925935	0.553548	1	0	5.211765e+01
389.897919	1.279655	city	7	1	1.124403	1.124403	0	1	0	0	CorrectCommission	0.160514	0.552807	1	0	5.182353e+01
391.177490	1.279496	city	1	1	1.283995	1.283995	0	1	0	0	CorrectCommission	0.817463	0.552297	1	0	5.152941e+01
392.457062	1.279638	city	9	1	1.123957	1.123957	0	1	0	0	CorrectCommission	0.158679	0.552241	1	0	5.123529e+01
393.736694	1.279670	city	6	1	1.175665	1.175665	0	1	0	0	CorrectCommission	0.371532	0.553047	1	0	5.094118e+01
395.023010	1.292926	city	10	1	1.190812	1.190812	0	1	0	0	CorrectCommission	0.433883	0.555146	1	0	5.064706e+01
396.309235	1.279553	city	7	1	0.964959	0.964959	0	1	0	0	CorrectCommission	0.495822	0.559017	1	0	5.035294e+01
397.588745	1.279423	city	6	1	0.911451	0.911451	0	1	0	0	CorrectCommission	0.716084	0.565138	1	0	5.005882e+01
398.868317	1.279764	city	10	1	0.870304	0.870304	0	1	0	0	CorrectCommission	0.885459	0.573913	1	0	4.976471e+01
400.147980	1.279555	city	1	1	0.911933	0.911933	0	1	0	0	CorrectCommission	0.714098	0.585720	1	0	4.947059e+01
401.427551	1.279578	city	10	1	1.029943	1.029943	0	1	0	0	CorrectCommission	0.228322	0.600863	1	0	4.917647e+01
402.707062	1.279441	city	9	1	0.909112	0.909112	0	1	0	0	CorrectCommission	0.725710	0.619511	1	0	4.888235e+01
403.986572	1.279575	city	4	1	1.124058	1.124058	0	1	0	0	CorrectCommission	0.159096	0.641634	1	0	4.858824e+01
405.266205	1.279720	city	5	1	1.002083	1.002083	0	1	0	0	CorrectCommission	0.343005	0.666967	1	0	4.829412e+01
405.906067	11.023037	break	0	1	0.857645	0.857645	0	0	0	0	ThoughtProbe	0.937570	0.694947	1	48	48
417.568909	1.279594	city	6	1	1.282263	1.282263	0	1	0	0	CorrectCommission	0.810332	0.724741	1	0	4.802500e+01
418.855164	1.292891	city	9	1	0.870873	0.870873	0	1	0	0	CorrectCommission	0.883119	0.755295	1	0	4.805000e+01
420.141388	1.279584	city	4	1	1.070131	1.070131	0	1	0	0	CorrectCommission	0.062890	0.785413	1	0	4.807500e+01
421.420898	1.279430	city	5	1	0.804288	0.804288	0	1	0	0	CorrectCommission	1.157208	0.813885	0	0	4.810000e+01
422.700409	1.279588	city	6	1	1.421963	1.421963	0	1	0	0	CorrectCommission	1.385397	0.839541	0	0	4.812500e+01
423.980072	1.279718	city	3	1	1.472634	1.472634	0	1	0	0	CorrectCommission	1.593978	0.861398	0	0	4.815000e+01
425.259705	1.279585	city	9	1	1.017442	1.017442	0	1	0	0	CorrectCommission	0.279781	0.878690	0	0	4.817500e+01
426.539215	1.279443	city	2	1	0.974745	0.974745	0	1	0	0	CorrectCommission	0.455541	0.890986	0	0	4.820000e+01
427.818817	1.279714	city	10	1	0.804184	0.804184	0	1	0	0	CorrectCommission	1.157637	0.898105	0	0	4.822500e+01
429.098450	1.279577	mountain	9	1	0.803960	0.803960	0	0	1	0	CommissionError	1.158558	0.900112	0	0	4.825000e+01
430.377960	1.279441	mountain	8	1	0.808193	0.808193	0	0	1	0	CommissionError	1.141135	0.897338	0	0	4.827500e+01
431.657562	1.279739	city	9	1	1.486589	1.486589	0	1	0	0	CorrectCommission	1.651425	0.890278	0	0	4.830000e+01
432.943787	1.292736	city	2	1	1.102228	1.102228	0	1	0	0	CorrectCommission	0.069235	0.879526	0	0	4.832500e+01
434.230011	1.279692	city	6	1	0.923459	0.923459	0	1	0	0	CorrectCommission	0.666651	0.865779	0	0	4.835000e+01
435.509674	1.279638	city	8	1	0.916288	0.916288	0	1	0	0	CorrectCommission	0.696171	0.849682	0	0	4.837500e+01
436.789276	1.279555	city	9	1	1.389928	1.389928	0	1	0	0	CorrectCommission	1.253525	0.831867	0	0	4.840000e+01
438.068817	1.279580	mountain	3	0	0.000000	1.387689	1	0	0	0	CorrectOmission	1.244309	0.812886	0	0	4.842500e+01
439.348419	1.279603	city	7	1	1.228369	1.228369	0	1	0	0	CorrectCommission	0.588483	0.793238	0	0	4.845000e+01
440.628021	1.279577	city	5	1	1.230766	1.230766	0	1	0	0	CorrectCommission	0.598351	0.773392	1	0	4.847500e+01
441.907562	1.279557	city	3	1	1.230758	1.230758	0	1	0	0	CorrectCommission	0.598318	0.753804	1	0	4.850000e+01
443.193726	1.292747	city	1	1	0.967123	0.967123	0	1	0	0	CorrectCommission	0.486913	0.734974	1	0	4.852500e+01
444.479950	1.279721	city	9	1	0.855226	0.855226	0	1	0	0	CorrectCommission	0.947526	0.717512	1	0	4.855000e+01
445.759644	1.279620	city	10	1	0.861976	0.861976	0	1	0	0	CorrectCommission	0.919744	0.702167	1	0	4.857500e+01
447.039215	1.279558	city	5	1	0.888848	0.888848	0	1	0	0	CorrectCommission	0.809124	0.689824	1	0	4.860000e+01
448.318817	1.279604	city	1	1	1.017629	1.017629	0	1	0	0	CorrectCommission	0.279011	0.681501	1	0	4.862500e+01
449.598297	1.279389	city	10	1	1.027382	1.027382	0	1	0	0	CorrectCommission	0.238863	0.678226	1	0	4.865000e+01
450.884521	1.293069	city	7	1	1.531522	1.531522	0	1	0	0	CorrectCommission	1.836386	0.680895	1	0	4.867500e+01
452.177521	1.292912	city	5	1	1.150420	1.150420	0	1	0	0	CorrectCommission	0.267612	0.690040	1	0	4.870000e+01
453.463776	1.279607	city	10	1	1.071838	1.071838	0	1	0	0	CorrectCommission	0.055863	0.705754	1	0	4.872500e+01
454.743286	1.279388	city	6	1	0.969564	0.969564	0	1	0	0	CorrectCommission	0.476865	0.727389	1	0	4.875000e+01
456.022827	1.279742	city	1	1	1.177503	1.177503	0	1	0	0	CorrectCommission	0.379096	0.753504	1	0	4.877500e+01
457.302429	1.279429	city	7	1	1.123649	1.123649	0	1	0	0	CorrectCommission	0.157412	0.781964	1	0	4.880000e+01
458.582031	1.279752	city	4	1	0.886113	0.886113	0	1	0	0	CorrectCommission	0.820383	0.810091	0	0	4.882500e+01
459.861664	1.279560	city	5	1	0.857790	0.857790	0	1	0	0	CorrectCommission	0.936973	0.834958	0	0	4.885000e+01
461.141235	1.279577	city	8	1	1.548174	1.548174	0	1	0	0	CorrectCommission	1.904934	0.853861	0	0	4.887500e+01
462.420746	1.279416	city	1	1	1.497190	1.497190	0	1	0	0	CorrectCommission	1.695063	0.864645	0	0	4.890000e+01
463.700256	1.279606	city	10	1	1.342845	1.342845	0	1	0	0	CorrectCommission	1.059715	0.866063	0	0	4.892500e+01
464.979828	1.279552	city	4	1	1.390810	1.390810	0	1	0	0	CorrectCommission	1.257158	0.857942	0	0	4.895000e+01
466.259491	1.279766	city	6	1	1.284276	1.284276	0	1	0	0	CorrectCommission	0.818620	0.841166	0	0	4.897500e+01
466.899384	8.397222	break	0	1	1.033170	1.033170	0	0	0	0	ThoughtProbe	0.215036	0.817545	0	49	49
475.949615	1.306066	city	2	1	1.342178	1.342178	0	1	0	0	CorrectCommission	1.056966	0.789496	0	0	4.880000e+01
477.255829	1.306328	city	8	1	1.419256	1.419256	0	1	0	0	CorrectCommission	1.374253	0.759628	1	0	4.860000e+01
478.555420	1.292869	city	6	1	1.155429	1.155429	0	1	0	0	CorrectCommission	0.288231	0.730387	1	0	4.840000e+01
479.848358	1.293022	city	10	1	1.076450	1.076450	0	1	0	0	CorrectCommission	0.036877	0.703762	1	0	4.820000e+01
481.161316	1.332890	city	1	1	1.121978	1.121978	0	1	0	0	CorrectCommission	0.150534	0.681053	1	0	48
482.494202	1.332895	city	6	1	0.987314	0.987314	0	1	0	0	CorrectCommission	0.403800	0.662815	1	0	4.780000e+01
483.807129	1.292909	city	3	1	0.929677	0.929677	0	1	0	0	CorrectCommission	0.641059	0.648981	1	0	4.760000e+01
485.106659	1.306184	city	8	1	0.742999	0.742999	0	1	0	0	CorrectCommission	1.409501	0.639055	1	0	4.740000e+01
486.399597	1.279681	city	3	1	1.022440	1.022440	0	1	0	0	CorrectCommission	0.259207	0.632346	1	0	4.720000e+01
487.685852	1.292860	city	4	1	0.944116	0.944116	0	1	0	0	CorrectCommission	0.581619	0.628354	1	0	47
488.985413	1.306253	mountain	2	1	0.729976	0.729976	0	0	1	0	CommissionError	1.463108	0.626869	1	0	4.680000e+01
490.285004	1.292897	city	7	1	1.277827	1.277827	0	1	0	0	CorrectCommission	0.792073	0.628086	1	0	4.660000e+01
491.571228	1.279573	city	3	1	1.071611	1.071611	0	1	0	0	CorrectCommission	0.056796	0.632591	1	0	4.640000e+01
492.857391	1.292762	mountain	4	0	0.000000	1.194815	1	0	0	0	CorrectOmission	0.450362	0.641171	1	0	4.620000e+01
494.150299	1.293053	city	4	1	1.298411	1.298411	0	1	0	0	CorrectCommission	0.876803	0.654517	1	0	46
495.476532	1.359394	city	7	1	1.033369	1.033369	0	1	0	0	CorrectCommission	0.214217	0.672954	1	0	4.580000e+01
496.816101	1.319729	city	2	1	1.056779	1.056779	0	1	0	0	CorrectCommission	0.117852	0.696216	1	0	4.560000e+01
498.129059	1.306236	city	3	1	1.034254	1.034254	0	1	0	0	CorrectCommission	0.210576	0.723284	1	0	4.540000e+01
499.442505	1.320653	city	7	1	0.891731	0.891731	0	1	0	0	CorrectCommission	0.797259	0.752383	1	0	4.520000e+01
500.762085	1.318479	city	10	1	0.780879	0.780879	0	1	0	0	CorrectCommission	1.253573	0.781085	1	0	45
502.061066	1.279484	city	3	1	1.428968	1.428968	0	1	0	0	CorrectCommission	1.414231	0.806579	0	0	4.480000e+01
503.407288	1.412983	city	9	1	1.229734	1.229734	0	1	0	0	CorrectCommission	0.594101	0.826012	0	0	4.460000e+01
504.766846	1.306083	city	6	1	0.929568	0.929568	0	1	0	0	CorrectCommission	0.641505	0.836848	0	0	4.440000e+01
506.079712	1.319684	city	2	1	0.776498	0.776498	0	1	0	0	CorrectCommission	1.271603	0.837182	0	0	4.420000e+01
507.405914	1.332742	city	1	1	0.796006	0.796006	0	1	0	0	CorrectCommission	1.191301	0.826042	0	0	44
508.732086	1.319601	city	5	1	0.619332	0.619332	0	1	0	0	CorrectCommission	1.918565	0.803545	0	0	4.380000e+01
510.051758	1.319697	mountain	4	1	0.810010	0.810010	0	0	1	0	CommissionError	1.133654	0.770861	1	0	4.360000e+01
511.378052	1.332916	city	1	1	0.992530	0.992530	0	1	0	0	CorrectCommission	0.382328	0.730144	1	0	4.340000e+01
512.704285	1.319560	city	6	1	1.277355	1.277355	0	1	0	0	CorrectCommission	0.790129	0.684254	1	0	4.320000e+01
514.017212	1.306242	city	8	1	1.023334	1.023334	0	1	0	0	CorrectCommission	0.255527	0.636371	1	0	43
515.323425	1.306238	city	1	1	1.164882	1.164882	0	1	0	0	CorrectCommission	0.327143	0.589720	1	0	4.280000e+01
516.642944	1.332754	city	6	1	1.058997	1.058997	0	1	0	0	CorrectCommission	0.108721	0.547170	1	0	4.260000e+01
517.982483	1.346365	city	4	1	1.002858	1.002858	0	1	0	0	CorrectCommission	0.339816	0.510992	1	0	4.240000e+01
519.322144	1.332894	city	7	1	0.894839	0.894839	0	1	0	0	CorrectCommission	0.784465	0.482683	1	0	4.220000e+01
520.641663	1.306236	city	9	1	1.088556	1.088556	0	1	0	0	CorrectCommission	0.012954	0.462909	1	0	42
521.954529	1.319492	city	6	1	1.089083	1.089083	0	1	0	0	CorrectCommission	0.015123	0.451563	1	0	4.180000e+01
523.300781	1.372959	city	8	1	0.966051	0.966051	0	1	0	0	CorrectCommission	0.491329	0.447803	1	0	4.160000e+01
524.653687	1.332892	city	4	1	0.946649	0.946649	0	1	0	0	CorrectCommission	0.571192	0.450226	1	0	4.140000e+01
525.979919	1.319552	city	1	1	0.959422	0.959422	0	1	0	0	CorrectCommission	0.518615	0.457008	1	0	4.120000e+01
526.639709	11.409753	break	0	0	0.000000	0.972194	0	0	0	0	ThoughtProbe	0.466039	0.466039	1	41	41
