onset	duration	trial_type	image_type	Press	ReactionTime	ReactionTime_Interpolated	CorrectOmission	CorrectCommission	CommissionError	OmissionError	response_type	nonsmoothVarianceTimeCourse	VarianceTimeCourse	In_the_Zone	ThoughtProbe	ThoughtProbe_Interpolated
0.653115	1.279468	city	5	1	1.506248	1.506248	0	1	0	0	CorrectCommission	1.211788	1.211788	0	0	42
1.932677	1.279655	city	2	1	1.124672	1.124672	0	1	0	0	CorrectCommission	0.286338	1.100131	0	0	42
3.212289	1.279569	city	1	1	1.024665	1.024665	0	1	0	0	CorrectCommission	0.678981	0.992334	0	0	42
4.491887	1.279626	city	4	1	1.388793	1.388793	0	1	0	0	CorrectCommission	0.750641	0.891959	0	0	42
5.771494	1.279589	mountain	10	0	0.000000	1.392499	1	0	0	0	CorrectOmission	0.765191	0.802046	0	0	42
7.051070	1.279563	city	7	1	1.294870	1.294870	0	1	0	0	CorrectCommission	0.381887	0.724921	1	0	42
8.330557	1.279410	city	8	1	1.354995	1.354995	0	1	0	0	CorrectCommission	0.617944	0.662053	1	0	42
9.610123	1.279723	city	5	1	1.231297	1.231297	0	1	0	0	CorrectCommission	0.132287	0.613949	1	0	42
10.889748	1.279527	city	7	1	1.236383	1.236383	0	1	0	0	CorrectCommission	0.152255	0.580197	1	0	42
12.169325	1.279627	city	4	1	1.230425	1.230425	0	1	0	0	CorrectCommission	0.128866	0.559532	1	0	42
13.448865	1.279452	city	6	1	1.124382	1.124382	0	1	0	0	CorrectCommission	0.287477	0.550035	1	0	42
14.735126	1.293070	city	3	1	1.082220	1.082220	0	1	0	0	CorrectCommission	0.453012	0.549335	1	0	42
16.034771	1.306219	city	4	1	0.939951	0.939951	0	1	0	0	CorrectCommission	1.011583	0.554926	1	0	42
17.327660	1.279560	city	8	1	1.080072	1.080072	0	1	0	0	CorrectCommission	0.461446	0.564447	1	0	42
18.607162	1.279446	city	2	1	0.961510	0.961510	0	1	0	0	CorrectCommission	0.926938	0.575943	1	0	42
19.886686	1.279603	city	6	1	1.018060	1.018060	0	1	0	0	CorrectCommission	0.704913	0.588004	1	0	42
21.166346	1.279714	mountain	9	0	0.000000	0.985932	1	0	0	0	CorrectOmission	0.831052	0.599884	1	0	42
22.452644	1.292884	mountain	10	1	1.009938	1.009938	0	0	1	0	CommissionError	0.736803	0.611425	1	0	42
23.738899	1.279625	city	8	1	1.234888	1.234888	0	1	0	0	CorrectCommission	0.146387	0.622927	1	0	42
25.018499	1.279574	city	1	1	1.408844	1.408844	0	1	0	0	CorrectCommission	0.829366	0.634948	1	0	42
26.298012	1.279452	city	10	1	1.347232	1.347232	0	1	0	0	CorrectCommission	0.587466	0.648015	1	0	42
27.577610	1.279744	city	9	1	1.354380	1.354380	0	1	0	0	CorrectCommission	0.615530	0.662447	1	0	42
28.870571	1.306181	city	7	1	1.221165	1.221165	0	1	0	0	CorrectCommission	0.092510	0.678185	1	0	42
30.163462	1.279599	city	1	1	1.125561	1.125561	0	1	0	0	CorrectCommission	0.282849	0.694753	1	0	42
31.443033	1.279546	city	7	1	0.984964	0.984964	0	1	0	0	CorrectCommission	0.834854	0.711308	1	0	42
32.722614	1.279613	city	9	1	0.860595	0.860595	0	1	0	0	CorrectCommission	1.323145	0.726806	1	0	42
34.002216	1.279596	city	2	1	0.921326	0.921326	0	1	0	0	CorrectCommission	1.084707	0.740250	1	0	42
35.281799	1.279566	city	5	1	1.073948	1.073948	0	1	0	0	CorrectCommission	0.485490	0.750943	0	0	42
36.561295	1.279424	city	10	1	0.918483	0.918483	0	1	0	0	CorrectCommission	1.095867	0.758739	0	0	42
37.840866	1.279723	city	1	1	0.924676	0.924676	0	1	0	0	CorrectCommission	1.071552	0.764143	0	0	42
39.120522	1.279581	city	6	1	1.135019	1.135019	0	1	0	0	CorrectCommission	0.245714	0.768390	0	0	42
40.400021	1.279417	city	7	1	0.980634	0.980634	0	1	0	0	CorrectCommission	0.851853	0.773341	0	0	42
41.679596	1.279739	city	10	1	0.751432	0.751432	0	1	0	0	CorrectCommission	1.751737	0.781219	0	0	42
42.959251	1.279571	city	3	1	1.017605	1.017605	0	1	0	0	CorrectCommission	0.706700	0.794283	0	0	42
44.238731	1.279390	city	1	1	1.250016	1.250016	0	1	0	0	CorrectCommission	0.205780	0.814473	0	0	42
45.518314	1.279772	city	3	1	1.193663	1.193663	0	1	0	0	CorrectCommission	0.015469	0.842977	0	0	42
46.797989	1.279581	mountain	3	1	1.142384	1.142384	0	0	1	0	CommissionError	0.216798	0.879911	0	0	42
48.097485	1.319411	city	4	1	1.145496	1.145496	0	1	0	0	CorrectCommission	0.204581	0.924196	0	0	42
49.403721	1.293059	city	6	1	0.925801	0.925801	0	1	0	0	CorrectCommission	1.067139	0.973594	0	0	42
50.689964	1.279425	city	3	1	0.869586	0.869586	0	1	0	0	CorrectCommission	1.287844	1.024922	0	0	42
51.969467	1.279581	city	9	1	0.766423	0.766423	0	1	0	0	CorrectCommission	1.692880	1.074466	0	0	42
53.255798	1.293083	city	6	1	0.822761	0.822761	0	1	0	0	CorrectCommission	1.471687	1.118418	0	0	42
54.542126	1.279572	city	8	1	0.979956	0.979956	0	1	0	0	CorrectCommission	0.854514	1.153371	0	0	42
55.821697	1.279570	city	2	1	0.764637	0.764637	0	1	0	0	CorrectCommission	1.699891	1.176701	0	0	42
57.101269	1.279580	city	9	1	0.658544	0.658544	0	1	0	0	CorrectCommission	2.116429	1.186783	0	0	42
61.339863	7.197608	break	0	1	0.647467	0.647467	0	0	0	0	ThoughtProbe	2.159922	1.183068	0	42	42
65.578461	1.279589	city	3	1	1.390137	1.390137	0	1	0	0	CorrectCommission	0.755920	1.165986	0	0	4.197500e+01
66.858055	1.279596	city	9	1	1.550980	1.550980	0	1	0	0	CorrectCommission	1.387412	1.136729	0	0	4.195000e+01
68.137634	1.279554	city	10	1	1.390090	1.390090	0	1	0	0	CorrectCommission	0.755735	1.096910	0	0	4.192500e+01
69.417175	1.279540	city	2	1	1.358805	1.358805	0	1	0	0	CorrectCommission	0.632904	1.048359	0	0	4.190000e+01
70.696770	1.279643	city	6	1	1.283770	1.283770	0	1	0	0	CorrectCommission	0.338306	0.992872	0	0	4.187500e+01
71.976311	1.279438	city	10	1	0.963761	0.963761	0	1	0	0	CorrectCommission	0.918100	0.932153	0	0	4.185000e+01
73.255867	1.279681	city	2	1	0.857798	0.857798	0	1	0	0	CorrectCommission	1.334127	0.867861	0	0	4.182500e+01
74.535446	1.279476	city	3	1	1.710247	1.710247	0	1	0	0	CorrectCommission	2.012723	0.801709	0	0	4.180000e+01
75.815048	1.279724	city	6	1	1.551682	1.551682	0	1	0	0	CorrectCommission	1.390169	0.735575	1	0	4.177500e+01
77.094612	1.279397	city	4	1	1.247729	1.247729	0	1	0	0	CorrectCommission	0.196805	0.671564	1	0	4.175000e+01
78.374107	1.279600	mountain	10	0	0.000000	1.185288	1	0	0	0	CorrectOmission	0.048352	0.611958	1	0	4.172500e+01
79.653770	1.279733	mountain	1	0	0.000000	1.239006	1	0	0	0	CorrectOmission	0.162555	0.558998	1	0	4.170000e+01
80.933426	1.279570	city	4	1	1.283534	1.283534	0	1	0	0	CorrectCommission	0.337380	0.514659	1	0	4.167500e+01
82.212921	1.279426	city	7	1	1.193522	1.193522	0	1	0	0	CorrectCommission	0.016021	0.480398	1	0	4.165000e+01
83.492424	1.279579	city	4	1	1.175050	1.175050	0	1	0	0	CorrectCommission	0.088545	0.456945	1	0	4.162500e+01
84.772003	1.279580	city	7	1	1.234438	1.234438	0	1	0	0	CorrectCommission	0.144619	0.444184	1	0	4.160000e+01
86.051590	1.279597	city	4	1	1.128723	1.128723	0	1	0	0	CorrectCommission	0.270434	0.441181	1	0	4.157500e+01
87.331245	1.279711	city	8	1	0.991368	0.991368	0	1	0	0	CorrectCommission	0.809710	0.446322	1	0	4.155000e+01
88.610893	1.279586	city	1	1	1.231001	1.231001	0	1	0	0	CorrectCommission	0.131127	0.457570	1	0	4.152500e+01
89.890488	1.279593	city	6	1	1.309379	1.309379	0	1	0	0	CorrectCommission	0.438850	0.472792	1	0	4.150000e+01
91.170067	1.279574	city	9	1	1.281527	1.281527	0	1	0	0	CorrectCommission	0.329500	0.490095	1	0	4.147500e+01
92.449593	1.279479	mountain	7	0	0.000000	1.435329	1	0	0	0	CorrectOmission	0.933349	0.508128	1	0	4.145000e+01
93.729172	1.279677	city	4	1	1.548302	1.548302	0	1	0	0	CorrectCommission	1.376900	0.526274	1	0	4.142500e+01
95.008797	1.279576	city	9	1	1.397966	1.397966	0	1	0	0	CorrectCommission	0.786658	0.544722	1	0	4.140000e+01
96.288391	1.279604	city	6	1	1.228278	1.228278	0	1	0	0	CorrectCommission	0.120436	0.564416	1	0	4.137500e+01
97.567955	1.279520	city	3	1	1.230844	1.230844	0	1	0	0	CorrectCommission	0.130510	0.586838	1	0	4.135000e+01
98.847435	1.279449	city	2	1	1.121421	1.121421	0	1	0	0	CorrectCommission	0.299101	0.613677	1	0	4.132500e+01
100.126968	1.279620	city	8	1	1.503207	1.503207	0	1	0	0	CorrectCommission	1.199848	0.646459	1	0	4.130000e+01
101.406654	1.279749	city	3	1	1.230380	1.230380	0	1	0	0	CorrectCommission	0.128688	0.686173	1	0	4.127500e+01
102.686287	1.279514	city	7	1	1.335571	1.335571	0	1	0	0	CorrectCommission	0.541684	0.733006	1	0	4.125000e+01
103.965843	1.279600	city	2	1	1.288827	1.288827	0	1	0	0	CorrectCommission	0.358159	0.786095	0	0	4.122500e+01
105.245430	1.279573	city	10	1	1.089304	1.089304	0	1	0	0	CorrectCommission	0.425200	0.843530	0	0	4.120000e+01
106.524986	1.279545	city	5	1	1.068445	1.068445	0	1	0	0	CorrectCommission	0.507094	0.902457	0	0	4.117500e+01
107.804558	1.279588	city	7	1	0.926500	0.926500	0	1	0	0	CorrectCommission	1.064391	0.959356	0	0	4.115000e+01
109.084145	1.279590	city	8	1	0.808369	0.808369	0	1	0	0	CorrectCommission	1.528191	1.010423	0	0	4.112500e+01
110.363739	1.279597	city	3	1	0.697269	0.697269	0	1	0	0	CorrectCommission	1.964390	1.052029	0	0	4.110000e+01
111.643242	1.279412	city	1	1	0.749071	0.749071	0	1	0	0	CorrectCommission	1.761005	1.081168	0	0	4.107500e+01
112.922806	1.279708	city	7	1	0.910531	0.910531	0	1	0	0	CorrectCommission	1.127090	1.095852	0	0	4.105000e+01
114.202385	1.279450	city	5	1	1.337343	1.337343	0	1	0	0	CorrectCommission	0.548641	1.095364	0	0	4.102500e+01
118.600945	7.517672	break	0	0	0.000000	1.686386	0	0	0	0	ThoughtProbe	1.919038	1.080302	0	41	41
122.999573	1.279595	city	3	1	1.783214	1.783214	0	1	0	0	CorrectCommission	2.299202	1.052501	0	0	4.076087e+01
124.279152	1.279550	city	9	1	1.453384	1.453384	0	1	0	0	CorrectCommission	1.004237	1.014822	0	0	4.052174e+01
125.558716	1.279576	city	4	1	1.400291	1.400291	0	1	0	0	CorrectCommission	0.795784	0.970823	0	0	4.028261e+01
126.838310	1.279616	city	6	1	1.240917	1.240917	0	1	0	0	CorrectCommission	0.170057	0.924267	0	0	4.004348e+01
128.117905	1.279584	city	9	1	1.088800	1.088800	0	1	0	0	CorrectCommission	0.427176	0.878716	0	0	3.980435e+01
129.397461	1.279536	city	1	1	1.033477	1.033477	0	1	0	0	CorrectCommission	0.644383	0.837165	0	0	3.956522e+01
130.677048	1.279623	mountain	8	0	0.000000	1.004846	1	0	0	0	CorrectOmission	0.756794	0.801788	0	0	3.932609e+01
131.956635	1.279567	mountain	5	0	0.000000	1.002026	1	0	0	0	CorrectOmission	0.767864	0.773775	0	0	3.908696e+01
133.236221	1.279590	mountain	10	0	0.000000	1.024139	1	0	0	0	CorrectOmission	0.681045	0.753368	0	0	3.884783e+01
134.515793	1.279559	city	8	1	1.070305	1.070305	0	1	0	0	CorrectCommission	0.499792	0.739991	1	0	3.860870e+01
135.795303	1.279460	city	6	1	1.139643	1.139643	0	1	0	0	CorrectCommission	0.227559	0.732540	1	0	3.836957e+01
137.074814	1.279571	city	10	1	0.980760	0.980760	0	1	0	0	CorrectCommission	0.851360	0.729646	1	0	3.813043e+01
138.354416	1.279633	city	2	1	1.446164	1.446164	0	1	0	0	CorrectCommission	0.975889	0.730024	1	0	3.789130e+01
139.633987	1.279496	city	9	1	1.550173	1.550173	0	1	0	0	CorrectCommission	1.384244	0.732796	1	0	3.765217e+01
140.913528	1.279602	city	6	1	1.291173	1.291173	0	1	0	0	CorrectCommission	0.367369	0.737682	1	0	3.741304e+01
142.193207	1.279742	city	2	1	1.121655	1.121655	0	1	0	0	CorrectCommission	0.298182	0.745124	0	0	3.717391e+01
143.472839	1.279539	city	9	1	0.909270	0.909270	0	1	0	0	CorrectCommission	1.132041	0.756204	0	0	3.693478e+01
144.752426	1.279607	city	10	1	0.748358	0.748358	0	1	0	0	CorrectCommission	1.763807	0.772433	0	0	3.669565e+01
146.031998	1.279563	city	8	1	1.079137	1.079137	0	1	0	0	CorrectCommission	0.465117	0.795448	0	0	3.645652e+01
147.311493	1.279425	city	1	1	1.123675	1.123675	0	1	0	0	CorrectCommission	0.290251	0.826601	0	0	3.621739e+01
148.591080	1.279737	city	7	1	1.176008	1.176008	0	1	0	0	CorrectCommission	0.084786	0.866476	0	0	3.597826e+01
149.870728	1.279546	city	3	1	1.088881	1.088881	0	1	0	0	CorrectCommission	0.426861	0.914570	0	0	3.573913e+01
151.150299	1.279602	city	1	1	1.040971	1.040971	0	1	0	0	CorrectCommission	0.614959	0.969168	0	0	3.550000e+01
152.429825	1.279471	city	8	1	1.230210	1.230210	0	1	0	0	CorrectCommission	0.128020	1.027424	0	0	3.526087e+01
153.709366	1.279592	city	6	1	1.465081	1.465081	0	1	0	0	CorrectCommission	1.050159	1.085672	0	0	3.502174e+01
154.988968	1.279618	city	5	1	1.710138	1.710138	0	1	0	0	CorrectCommission	2.012295	1.139935	0	0	3.478261e+01
156.268600	1.279661	city	2	1	1.603757	1.603757	0	1	0	0	CorrectCommission	1.594626	1.186559	0	0	3.454348e+01
157.548218	1.279552	city	5	0	0.000000	1.684040	0	0	0	1	OmissionError	1.909827	1.222857	0	0	3.430435e+01
158.827744	1.279506	city	8	1	1.816852	1.816852	0	1	0	0	CorrectCommission	2.431270	1.247484	0	0	3.406522e+01
160.107330	1.279673	city	1	1	1.868061	1.868061	0	1	0	0	CorrectCommission	2.632325	1.260640	0	0	3.382609e+01
161.386932	1.279534	city	10	0	0.000000	1.460437	0	0	0	1	OmissionError	1.031927	1.263947	0	0	3.358696e+01
162.666504	1.279602	mountain	9	1	1.017719	1.017719	0	0	1	0	CommissionError	0.706254	1.260071	0	0	3.334783e+01
163.946106	1.279588	city	4	1	0.963648	0.963648	0	1	0	0	CorrectCommission	0.918545	1.252090	0	0	3.310870e+01
165.225693	1.279603	city	2	1	1.336875	1.336875	0	1	0	0	CorrectCommission	0.546804	1.242864	0	0	3.286957e+01
166.505264	1.279551	city	6	0	0.000000	1.202712	0	0	0	1	OmissionError	0.020060	1.234553	0	0	3.263043e+01
167.784851	1.279607	city	5	1	1.088229	1.088229	0	1	0	0	CorrectCommission	0.429417	1.228283	0	0	3.239130e+01
169.064438	1.279568	city	3	0	0.000000	1.520497	0	0	0	1	OmissionError	1.267732	1.224112	0	0	3.215217e+01
170.343964	1.279488	city	6	1	1.934428	1.934428	0	1	0	0	CorrectCommission	2.892889	1.221200	0	0	3.191304e+01
171.623535	1.279636	city	1	0	0.000000	1.764936	0	0	0	1	OmissionError	2.227437	1.218145	0	0	3.167391e+01
172.903152	1.279615	city	5	0	0.000000	1.413994	0	0	0	1	OmissionError	0.849584	1.213432	0	0	3.143478e+01
174.182755	1.279586	city	9	1	1.283575	1.283575	0	1	0	0	CorrectCommission	0.337541	1.205748	0	0	3.119565e+01
175.462250	1.279396	city	2	1	1.775654	1.775654	0	1	0	0	CorrectCommission	2.269518	1.194157	0	0	3.095652e+01
176.741745	1.279594	city	8	1	1.665015	1.665015	0	1	0	0	CorrectCommission	1.835132	1.178096	0	0	3.071739e+01
178.021408	1.279757	city	3	0	0.000000	1.319266	0	0	0	1	OmissionError	0.477670	1.157377	0	0	3.047826e+01
179.301071	1.279565	city	4	1	1.089424	1.089424	0	1	0	0	CorrectCommission	0.424728	1.132000	0	0	3.023913e+01
183.739594	7.597477	break	0	0	0.000000	1.326502	0	0	0	0	ThoughtProbe	0.506077	1.101975	0	30	30
188.178146	1.279623	city	3	1	1.604386	1.604386	0	1	0	0	CorrectCommission	1.597096	1.067254	0	0	2.988235e+01
189.457748	1.279566	city	1	1	1.496963	1.496963	0	1	0	0	CorrectCommission	1.175336	1.027714	0	0	2.976471e+01
190.737305	1.279565	city	10	1	1.550170	1.550170	0	1	0	0	CorrectCommission	1.384232	0.983307	0	0	2.964706e+01
192.016876	1.279582	mountain	8	0	0.000000	1.555260	1	0	0	0	CorrectOmission	1.404217	0.934177	0	0	2.952941e+01
193.296463	1.279581	city	1	1	1.518048	1.518048	0	1	0	0	CorrectCommission	1.258116	0.880809	0	0	2.941176e+01
194.575974	1.279444	city	10	1	1.444347	1.444347	0	1	0	0	CorrectCommission	0.968754	0.824143	0	0	2.929412e+01
195.855560	1.279715	city	9	1	1.340948	1.340948	0	1	0	0	CorrectCommission	0.562796	0.765621	0	0	2.917647e+01
197.135132	1.279449	city	5	1	1.305891	1.305891	0	1	0	0	CorrectCommission	0.425156	0.707087	1	0	2.905882e+01
198.414658	1.279592	city	10	1	1.100010	1.100010	0	1	0	0	CorrectCommission	0.383164	0.650602	1	0	2.894118e+01
199.694290	1.279691	city	4	1	1.032085	1.032085	0	1	0	0	CorrectCommission	0.649850	0.598283	1	0	2.882353e+01
200.973846	1.279405	city	7	1	1.281935	1.281935	0	1	0	0	CorrectCommission	0.331102	0.552094	1	0	2.870588e+01
202.253418	1.279732	city	3	1	1.253654	1.253654	0	1	0	0	CorrectCommission	0.220064	0.513672	1	0	2.858824e+01
203.533081	1.279598	city	8	1	1.338030	1.338030	0	1	0	0	CorrectCommission	0.551340	0.484197	1	0	2.847059e+01
204.812668	1.279585	city	1	1	1.195181	1.195181	0	1	0	0	CorrectCommission	0.009509	0.464291	1	0	2.835294e+01
206.092255	1.279589	city	3	1	1.068349	1.068349	0	1	0	0	CorrectCommission	0.507473	0.454063	1	0	2.823529e+01
207.371750	1.279395	city	7	1	1.301569	1.301569	0	1	0	0	CorrectCommission	0.408189	0.453129	1	0	2.811765e+01
208.651260	1.279641	city	9	1	1.243572	1.243572	0	1	0	0	CorrectCommission	0.180482	0.460713	1	0	28
209.930862	1.279542	city	10	1	1.177231	1.177231	0	1	0	0	CorrectCommission	0.079985	0.475714	1	0	2.788235e+01
211.210495	1.279719	city	8	1	1.123699	1.123699	0	1	0	0	CorrectCommission	0.290159	0.496835	1	0	2.776471e+01
212.490051	1.279418	mountain	1	1	0.980249	0.980249	0	0	1	0	CommissionError	0.853365	0.522732	1	0	2.764706e+01
213.769623	1.279710	city	3	1	0.881341	0.881341	0	1	0	0	CorrectCommission	1.241694	0.552054	1	0	2.752941e+01
215.049286	1.279622	city	2	1	1.126753	1.126753	0	1	0	0	CorrectCommission	0.278169	0.583544	1	0	2.741176e+01
216.328873	1.279542	city	8	1	1.336885	1.336885	0	1	0	0	CorrectCommission	0.546843	0.616102	1	0	2.729412e+01
217.608444	1.279601	city	6	1	1.230461	1.230461	0	1	0	0	CorrectCommission	0.129005	0.648817	1	0	2.717647e+01
218.888031	1.279574	city	5	1	1.070554	1.070554	0	1	0	0	CorrectCommission	0.498815	0.681020	1	0	2.705882e+01
220.167603	1.279564	city	8	1	0.856982	0.856982	0	1	0	0	CorrectCommission	1.337330	0.712329	1	0	2.694118e+01
221.447128	1.279488	city	9	1	0.857001	0.857001	0	1	0	0	CorrectCommission	1.337255	0.742650	1	0	2.682353e+01
222.726639	1.279543	city	8	1	1.175844	1.175844	0	1	0	0	CorrectCommission	0.085429	0.772235	0	0	2.670588e+01
224.006287	1.279746	city	5	1	1.043867	1.043867	0	1	0	0	CorrectCommission	0.603593	0.801647	0	0	2.658824e+01
225.285904	1.279512	city	3	1	0.964159	0.964159	0	1	0	0	CorrectCommission	0.916536	0.831637	0	0	2.647059e+01
226.565475	1.279613	city	10	1	0.863317	0.863317	0	1	0	0	CorrectCommission	1.312458	0.863001	0	0	2.635294e+01
227.845093	1.279611	city	1	1	0.801980	0.801980	0	1	0	0	CorrectCommission	1.553279	0.896378	0	0	2.623529e+01
229.124588	1.279401	city	2	1	0.964410	0.964410	0	1	0	0	CorrectCommission	0.915554	0.932032	0	0	2.611765e+01
233.589691	7.650807	break	0	0	0.000000	1.159741	0	0	0	0	ThoughtProbe	0.148652	0.969601	0	26	26
238.054886	1.279566	city	2	1	1.254194	1.254194	0	1	0	0	CorrectCommission	0.222185	1.007954	0	0	2.630435e+01
239.361191	1.333046	city	7	1	1.113989	1.113989	0	1	0	0	CorrectCommission	0.328282	1.045168	0	0	2.660870e+01
240.667511	1.279601	city	6	1	0.965046	0.965046	0	1	0	0	CorrectCommission	0.913055	1.078710	0	0	2.691304e+01
241.947113	1.279595	city	9	1	0.930422	0.930422	0	1	0	0	CorrectCommission	1.048992	1.105755	0	0	2.721739e+01
243.226608	1.279413	city	10	1	0.556735	0.556735	0	1	0	0	CorrectCommission	2.516146	1.123665	0	0	2.752174e+01
244.512833	1.293028	city	4	1	0.575039	0.575039	0	1	0	0	CorrectCommission	2.444282	1.130431	0	0	2.782609e+01
245.805756	1.292816	city	8	1	0.715371	0.715371	0	1	0	0	CorrectCommission	1.893316	1.125097	0	0	2.813043e+01
247.098618	1.292912	city	10	1	0.838266	0.838266	0	1	0	0	CorrectCommission	1.410813	1.107926	0	0	2.843478e+01
248.384857	1.279570	city	3	1	0.875752	0.875752	0	1	0	0	CorrectCommission	1.263637	1.080370	0	0	2.873913e+01
249.664490	1.279685	mountain	9	0	0.000000	1.235750	1	0	0	0	CorrectOmission	0.149772	1.044831	0	0	2.904348e+01
250.944138	1.279624	city	9	1	1.468413	1.468413	0	1	0	0	CorrectCommission	1.063243	1.004267	0	0	2.934783e+01
252.223663	1.279426	city	6	1	1.123893	1.123893	0	1	0	0	CorrectCommission	0.289395	0.961694	0	0	2.965217e+01
253.516495	1.306229	city	10	1	1.039958	1.039958	0	1	0	0	CorrectCommission	0.618940	0.919828	0	0	2.995652e+01
254.809479	1.279743	mountain	8	0	0.000000	1.360824	1	0	0	0	CorrectOmission	0.640833	0.880733	0	0	3.026087e+01
256.088959	1.279211	city	4	1	1.557403	1.557403	0	1	0	0	CorrectCommission	1.412633	0.845715	0	0	3.056522e+01
257.388458	1.319771	city	3	1	1.100604	1.100604	0	1	0	0	CorrectCommission	0.380834	0.815347	0	0	3.086957e+01
258.688110	1.279564	city	10	1	1.071191	1.071191	0	1	0	0	CorrectCommission	0.496312	0.789604	0	0	3.117391e+01
259.967773	1.279730	city	9	1	1.627285	1.627285	0	1	0	0	CorrectCommission	1.687000	0.767987	0	0	3.147826e+01
261.247437	1.279592	city	1	1	1.365937	1.365937	0	1	0	0	CorrectCommission	0.660905	0.749719	0	0	3.178261e+01
262.527008	1.279595	city	6	1	1.413291	1.413291	0	1	0	0	CorrectCommission	0.846825	0.733959	1	0	3.208696e+01
263.806580	1.279554	mountain	6	0	0.000000	1.161074	1	0	0	0	CorrectOmission	0.143420	0.719844	1	0	3.239130e+01
265.092743	1.292745	city	10	1	0.980756	0.980756	0	1	0	0	CorrectCommission	0.851375	0.706559	1	0	3.269565e+01
266.378906	1.279604	city	1	1	1.243810	1.243810	0	1	0	0	CorrectCommission	0.181417	0.693332	1	0	33
267.665192	1.292936	city	3	1	1.299912	1.299912	0	1	0	0	CorrectCommission	0.401680	0.679519	1	0	3.330435e+01
268.951447	1.279585	city	7	1	1.502272	1.502272	0	1	0	0	CorrectCommission	1.196180	0.664601	1	0	3.360870e+01
270.231049	1.279645	city	5	1	1.516499	1.516499	0	1	0	0	CorrectCommission	1.252035	0.648266	1	0	3.391304e+01
271.510651	1.279516	city	3	1	1.353606	1.353606	0	1	0	0	CorrectCommission	0.612491	0.630491	1	0	3.421739e+01
272.810242	1.319686	city	10	1	1.380352	1.380352	0	1	0	0	CorrectCommission	0.717503	0.611575	1	0	3.452174e+01
274.149872	1.359560	city	1	1	1.123549	1.123549	0	1	0	0	CorrectCommission	0.290747	0.592165	1	0	3.482609e+01
275.469421	1.279569	city	4	1	1.346656	1.346656	0	1	0	0	CorrectCommission	0.585206	0.573239	1	0	3.513043e+01
276.748993	1.279545	city	9	1	1.407009	1.407009	0	1	0	0	CorrectCommission	0.822162	0.555989	1	0	3.543478e+01
278.061829	1.346116	city	8	1	1.301893	1.301893	0	1	0	0	CorrectCommission	0.409460	0.541739	1	0	3.573913e+01
279.381348	1.292944	city	9	1	1.154164	1.154164	0	1	0	0	CorrectCommission	0.170548	0.531767	1	0	3.604348e+01
280.674225	1.292787	city	4	1	1.167564	1.167564	0	1	0	0	CorrectCommission	0.117939	0.527174	1	0	3.634783e+01
281.960449	1.279667	mountain	6	0	0.000000	1.042420	1	0	0	0	CorrectOmission	0.609274	0.528740	1	0	3.665217e+01
283.240143	1.279719	city	8	1	0.983364	0.983364	0	1	0	0	CorrectCommission	0.841134	0.536821	1	0	3.695652e+01
284.519684	1.279399	city	1	1	1.195030	1.195030	0	1	0	0	CorrectCommission	0.010100	0.551350	1	0	3.726087e+01
285.825928	1.333078	city	4	1	1.199951	1.199951	0	1	0	0	CorrectCommission	0.009221	0.571878	1	0	3.756522e+01
287.138916	1.292909	city	3	1	0.987222	0.987222	0	1	0	0	CorrectCommission	0.825990	0.597587	1	0	3.786957e+01
288.425171	1.279568	city	2	1	0.804074	0.804074	0	1	0	0	CorrectCommission	1.545056	0.627375	1	0	3.817391e+01
289.704681	1.279446	city	8	1	1.209275	1.209275	0	1	0	0	CorrectCommission	0.045825	0.660005	1	0	3.847826e+01
290.990906	1.293030	city	9	1	1.242872	1.242872	0	1	0	0	CorrectCommission	0.177732	0.694239	1	0	3.878261e+01
292.297211	1.319583	city	5	1	1.074069	1.074069	0	1	0	0	CorrectCommission	0.485013	0.728864	1	0	3.908696e+01
293.596771	1.279542	city	7	1	0.937337	0.937337	0	1	0	0	CorrectCommission	1.021846	0.762752	0	0	3.939130e+01
294.876343	1.279601	city	8	1	0.821011	0.821011	0	1	0	0	CorrectCommission	1.478558	0.794900	0	0	3.969565e+01
299.128235	7.224144	break	0	1	0.639898	0.639898	0	0	0	0	ThoughtProbe	2.189636	0.824389	0	40	40
303.393494	1.306399	city	3	1	1.260144	1.260144	0	1	0	0	CorrectCommission	0.245547	0.850296	0	0	3.973529e+01
304.693115	1.292873	city	10	1	1.157567	1.157567	0	1	0	0	CorrectCommission	0.157188	0.871704	0	0	3.947059e+01
305.992706	1.306284	city	6	1	1.229797	1.229797	0	1	0	0	CorrectCommission	0.126401	0.887567	0	0	3.920588e+01
307.298981	1.306243	city	1	1	1.049771	1.049771	0	1	0	0	CorrectCommission	0.580411	0.896805	0	0	3.894118e+01
308.598511	1.292830	city	4	1	0.897137	0.897137	0	1	0	0	CorrectCommission	1.179677	0.898399	0	0	3.867647e+01
309.891388	1.292933	city	2	1	0.767845	0.767845	0	1	0	0	CorrectCommission	1.687298	0.891611	0	0	3.841176e+01
311.190979	1.306244	city	7	1	1.710895	1.710895	0	1	0	0	CorrectCommission	2.015267	0.876240	0	0	3.814706e+01
312.490509	1.292793	mountain	5	0	0.000000	1.619067	1	0	0	0	CorrectOmission	1.654733	0.852841	0	0	3.788235e+01
313.776764	1.279714	city	6	1	1.142867	1.142867	0	1	0	0	CorrectCommission	0.214901	0.822823	0	0	3.761765e+01
315.056366	1.279501	city	10	1	0.932805	0.932805	0	1	0	0	CorrectCommission	1.039636	0.788445	0	0	3.735294e+01
316.349182	1.306147	city	4	1	1.008014	1.008014	0	1	0	0	CorrectCommission	0.744355	0.752531	0	0	3.708824e+01
317.648773	1.293048	city	3	1	1.168076	1.168076	0	1	0	0	CorrectCommission	0.115926	0.718226	1	0	3.682353e+01
318.935028	1.279427	city	9	1	1.256914	1.256914	0	1	0	0	CorrectCommission	0.232864	0.688625	1	0	3.655882e+01
320.214539	1.279634	city	10	1	1.139060	1.139060	0	1	0	0	CorrectCommission	0.229849	0.666354	1	0	3.629412e+01
321.507477	1.306207	city	5	1	0.993746	0.993746	0	1	0	0	CorrectCommission	0.800374	0.653275	1	0	3.602941e+01
322.807037	1.292925	city	2	1	0.995048	0.995048	0	1	0	0	CorrectCommission	0.795262	0.650256	1	0	3.576471e+01
324.113342	1.319675	city	5	1	1.249220	1.249220	0	1	0	0	CorrectCommission	0.202657	0.657136	1	0	3.550000e+01
325.412994	1.279668	city	7	1	1.264044	1.264044	0	1	0	0	CorrectCommission	0.260858	0.672750	1	0	3.523529e+01
326.692596	1.279523	mountain	1	0	0.000000	1.254110	1	0	0	0	CorrectOmission	0.221856	0.695075	1	0	3.497059e+01
327.978821	1.292928	city	4	1	1.307261	1.307261	0	1	0	0	CorrectCommission	0.430536	0.721508	1	0	3.470588e+01
329.271667	1.292761	city	10	1	1.511341	1.511341	0	1	0	0	CorrectCommission	1.231785	0.749228	0	0	3.444118e+01
330.557922	1.279724	city	7	1	1.456959	1.456959	0	1	0	0	CorrectCommission	1.018271	0.775517	0	0	3.417647e+01
331.837555	1.279564	city	9	1	1.740076	1.740076	0	1	0	0	CorrectCommission	2.129834	0.798145	0	0	3.391176e+01
333.123718	1.292729	city	8	1	1.419932	1.419932	0	1	0	0	CorrectCommission	0.872898	0.815574	0	0	3.364706e+01
334.416595	1.293079	city	3	1	1.141969	1.141969	0	1	0	0	CorrectCommission	0.218426	0.827186	0	0	3.338235e+01
335.709595	1.292919	city	10	1	1.001362	1.001362	0	1	0	0	CorrectCommission	0.770472	0.833248	0	0	3.311765e+01
337.002472	1.292793	city	9	1	0.924390	0.924390	0	1	0	0	CorrectCommission	1.072679	0.834856	0	0	3.285294e+01
338.302032	1.306319	city	1	1	1.374475	1.374475	0	1	0	0	CorrectCommission	0.694429	0.833782	0	0	3.258824e+01
339.601593	1.292855	city	4	1	1.515997	1.515997	0	1	0	0	CorrectCommission	1.250067	0.832256	0	0	3.232353e+01
340.894440	1.292827	city	5	1	1.433532	1.433532	0	1	0	0	CorrectCommission	0.926294	0.832636	0	0	3.205882e+01
342.187317	1.292918	city	2	1	1.085612	1.085612	0	1	0	0	CorrectCommission	0.439695	0.837142	0	0	3.179412e+01
343.480316	1.293070	city	6	1	0.973631	0.973631	0	1	0	0	CorrectCommission	0.879347	0.847465	0	0	3.152941e+01
344.773224	1.292722	city	9	1	1.040318	1.040318	0	1	0	0	CorrectCommission	0.617525	0.864461	0	0	3.126471e+01
349.085083	7.330996	break	0	1	1.119147	1.119147	0	0	0	0	ThoughtProbe	0.308032	0.887956	0	31	31
353.390381	1.279615	city	4	1	1.026133	1.026133	0	1	0	0	CorrectCommission	0.673218	0.916597	0	0	3.112500e+01
354.670013	1.279640	mountain	9	1	1.070379	1.070379	0	0	1	0	CommissionError	0.499502	0.947907	0	0	3.125000e+01
355.956207	1.292755	city	8	1	0.981308	0.981308	0	1	0	0	CorrectCommission	0.849206	0.978492	0	0	3.137500e+01
357.255768	1.306357	city	7	1	0.942674	0.942674	0	1	0	0	CorrectCommission	1.000889	1.004440	0	0	3.150000e+01
358.562073	1.306280	city	6	1	0.969745	0.969745	0	1	0	0	CorrectCommission	0.894605	1.021847	0	0	3.162500e+01
359.855011	1.279574	city	3	1	0.649235	0.649235	0	1	0	0	CorrectCommission	2.152979	1.027383	0	0	3.175000e+01
361.154480	1.319400	city	9	1	0.532399	0.532399	0	1	0	0	CorrectCommission	2.611696	1.018763	0	0	3.187500e+01
362.460724	1.293060	city	3	1	0.858010	0.858010	0	1	0	0	CorrectCommission	1.333293	0.995116	0	0	32
363.760315	1.306123	city	6	1	0.821438	0.821438	0	1	0	0	CorrectCommission	1.476881	0.957184	0	0	3.212500e+01
365.053131	1.279531	city	8	1	0.874375	0.874375	0	1	0	0	CorrectCommission	1.269042	0.907175	0	0	3.225000e+01
366.332733	1.279639	city	7	1	1.128432	1.128432	0	1	0	0	CorrectCommission	0.271576	0.848484	0	0	3.237500e+01
367.618896	1.292686	city	4	1	1.267686	1.267686	0	1	0	0	CorrectCommission	0.275156	0.785274	0	0	3.250000e+01
368.931854	1.333238	city	5	1	1.181188	1.181188	0	1	0	0	CorrectCommission	0.064447	0.721966	1	0	3.262500e+01
370.238251	1.279585	mountain	8	0	0.000000	1.263626	1	0	0	0	CorrectOmission	0.259218	0.662758	1	0	3.275000e+01
371.517822	1.279576	city	2	1	1.388843	1.388843	0	1	0	0	CorrectCommission	0.750837	0.611246	1	0	3.287500e+01
372.810669	1.306070	city	10	1	1.430679	1.430679	0	1	0	0	CorrectCommission	0.915094	0.570174	1	0	33
374.130096	1.332809	city	1	1	1.311734	1.311734	0	1	0	0	CorrectCommission	0.448097	0.541273	1	0	3.312500e+01
375.443085	1.293137	mountain	2	0	0.000000	1.250258	1	0	0	0	CorrectOmission	0.206732	0.525236	1	0	3.325000e+01
376.736084	1.292892	city	4	1	1.220533	1.220533	0	1	0	0	CorrectCommission	0.090028	0.521684	1	0	3.337500e+01
378.022278	1.279496	city	6	1	1.196843	1.196843	0	1	0	0	CorrectCommission	0.002985	0.529272	1	0	3.350000e+01
379.308472	1.292891	city	1	1	1.025861	1.025861	0	1	0	0	CorrectCommission	0.674286	0.545793	1	0	3.362500e+01
380.594757	1.279651	city	9	1	1.203804	1.203804	0	1	0	0	CorrectCommission	0.024345	0.568365	1	0	3.375000e+01
381.894379	1.319606	city	1	1	1.266795	1.266795	0	1	0	0	CorrectCommission	0.271657	0.593753	1	0	3.387500e+01
383.193970	1.279572	city	10	1	1.303947	1.303947	0	1	0	0	CorrectCommission	0.417524	0.618679	1	0	34
384.473480	1.279478	city	6	0	0.000000	1.600626	0	0	0	1	OmissionError	1.582330	0.640200	1	0	3.412500e+01
385.759735	1.293031	city	2	1	1.729243	1.729243	0	1	0	0	CorrectCommission	2.087304	0.656041	1	0	3.425000e+01
387.072693	1.332878	city	5	1	1.262214	1.262214	0	1	0	0	CorrectCommission	0.253673	0.664904	1	0	3.437500e+01
388.385590	1.292936	city	6	1	1.413175	1.413175	0	1	0	0	CorrectCommission	0.846370	0.666633	1	0	3.450000e+01
389.678467	1.292780	city	3	1	1.367066	1.367066	0	1	0	0	CorrectCommission	0.665339	0.662129	1	0	3.462500e+01
390.971344	1.292997	city	6	1	1.474611	1.474611	0	1	0	0	CorrectCommission	1.087576	0.653262	1	0	3.475000e+01
392.264252	1.292776	city	10	1	1.251585	1.251585	0	1	0	0	CorrectCommission	0.211942	0.642515	1	0	3.487500e+01
393.550507	1.279749	city	6	1	1.421642	1.421642	0	1	0	0	CorrectCommission	0.879612	0.632633	1	0	35
394.876770	1.372783	city	4	1	1.266974	1.266974	0	1	0	0	CorrectCommission	0.272360	0.626175	1	0	3.512500e+01
396.202972	1.279657	city	7	1	1.124696	1.124696	0	1	0	0	CorrectCommission	0.286243	0.625179	1	0	3.525000e+01
397.489288	1.292922	city	5	1	1.219939	1.219939	0	1	0	0	CorrectCommission	0.087696	0.630848	1	0	3.537500e+01
398.808868	1.346261	city	8	1	1.179559	1.179559	0	1	0	0	CorrectCommission	0.070843	0.643435	1	0	3.550000e+01
400.128448	1.292874	city	4	1	1.370939	1.370939	0	1	0	0	CorrectCommission	0.680543	0.662250	1	0	3.562500e+01
401.441223	1.332721	city	10	1	1.209771	1.209771	0	1	0	0	CorrectCommission	0.047774	0.685836	1	0	3.575000e+01
402.747467	1.279770	city	6	1	1.632890	1.632890	0	1	0	0	CorrectCommission	1.709004	0.712277	1	0	3.587500e+01
406.866211	6.957704	break	0	0	0.000000	1.593957	0	0	0	0	ThoughtProbe	1.556149	0.739453	1	36	36
410.991425	1.292727	city	7	1	1.319080	1.319080	0	1	0	0	CorrectCommission	0.476939	0.765465	0	0	3.605000e+01
412.297638	1.319695	city	1	1	1.034365	1.034365	0	1	0	0	CorrectCommission	0.640896	0.788904	0	0	3.610000e+01
413.597290	1.279573	city	3	1	0.915354	0.915354	0	1	0	0	CorrectCommission	1.108152	0.808990	0	0	3.615000e+01
414.883545	1.292955	city	2	1	0.944269	0.944269	0	1	0	0	CorrectCommission	0.994627	0.825705	0	0	3.620000e+01
416.183075	1.306120	city	10	1	1.006962	1.006962	0	1	0	0	CorrectCommission	0.748487	0.839747	0	0	3.625000e+01
417.489319	1.306358	city	2	1	1.099829	1.099829	0	1	0	0	CorrectCommission	0.383874	0.852410	0	0	3.630000e+01
418.782196	1.279407	city	4	1	1.022880	1.022880	0	1	0	0	CorrectCommission	0.685988	0.865361	0	0	3.635000e+01
420.061768	1.279747	city	3	1	0.865041	0.865041	0	1	0	0	CorrectCommission	1.305691	0.880358	0	0	3.640000e+01
421.348114	1.292907	city	6	1	0.818270	0.818270	0	1	0	0	CorrectCommission	1.489320	0.898990	0	0	3.645000e+01
422.634338	1.279551	mountain	6	0	0.000000	0.913064	1	0	0	0	CorrectOmission	1.117144	0.922286	0	0	3.650000e+01
423.913910	1.279608	mountain	10	0	0.000000	1.054894	1	0	0	0	CorrectOmission	0.560297	0.950421	0	0	3.655000e+01
425.193481	1.279560	city	9	1	1.149232	1.149232	0	1	0	0	CorrectCommission	0.189910	0.982486	0	0	3.660000e+01
426.473053	1.279561	city	6	1	1.101550	1.101550	0	1	0	0	CorrectCommission	0.377118	1.016409	0	0	3.665000e+01
427.752594	1.279498	city	4	1	1.203581	1.203581	0	1	0	0	CorrectCommission	0.023471	1.049066	0	0	3.670000e+01
429.032104	1.279529	city	2	1	1.340255	1.340255	0	1	0	0	CorrectCommission	0.560076	1.076685	0	0	3.675000e+01
430.325073	1.306403	city	3	1	1.542701	1.542701	0	1	0	0	CorrectCommission	1.354910	1.095366	0	0	3.680000e+01
431.631378	1.306226	city	8	1	1.969574	1.969574	0	1	0	0	CorrectCommission	3.030881	1.101752	0	0	3.685000e+01
432.930908	1.292857	city	3	1	2.001152	2.001152	0	1	0	0	CorrectCommission	3.154858	1.093631	0	0	3.690000e+01
434.237152	1.319631	city	10	0	0.000000	1.773322	0	0	0	1	OmissionError	2.260365	1.070364	0	0	3.695000e+01
435.536774	1.279575	city	2	1	1.483519	1.483519	0	1	0	0	CorrectCommission	1.122553	1.033042	0	0	37
436.856201	1.359316	city	3	1	1.329175	1.329175	0	1	0	0	CorrectCommission	0.516573	0.984234	0	0	3.705000e+01
438.175781	1.279834	city	4	1	1.197573	1.197573	0	1	0	0	CorrectCommission	0.000117	0.927528	0	0	3.710000e+01
439.462067	1.292720	city	7	1	1.039627	1.039627	0	1	0	0	CorrectCommission	0.620238	0.866922	0	0	3.715000e+01
440.748291	1.279750	city	8	1	1.208046	1.208046	0	1	0	0	CorrectCommission	0.041003	0.806179	0	0	3.720000e+01
442.034637	1.292919	city	10	1	1.226384	1.226384	0	1	0	0	CorrectCommission	0.113000	0.748410	0	0	3.725000e+01
443.334137	1.306088	city	5	1	1.137592	1.137592	0	1	0	0	CorrectCommission	0.235611	0.695803	1	0	3.730000e+01
444.633698	1.293038	city	9	1	1.023389	1.023389	0	1	0	0	CorrectCommission	0.683992	0.649654	1	0	3.735000e+01
445.920013	1.279588	city	1	1	1.656468	1.656468	0	1	0	0	CorrectCommission	1.801577	0.610566	1	0	3.740000e+01
447.226257	1.332904	mountain	9	0	0.000000	1.523248	1	0	0	0	CorrectOmission	1.278533	0.578718	1	0	3.745000e+01
448.539062	1.292727	city	2	1	1.143783	1.143783	0	1	0	0	CorrectCommission	0.211304	0.554159	1	0	3.750000e+01
449.851959	1.333028	city	10	1	1.038130	1.038130	0	1	0	0	CorrectCommission	0.626115	0.536944	1	0	3.755000e+01
451.184845	1.332747	city	5	1	1.194434	1.194434	0	1	0	0	CorrectCommission	0.012443	0.527113	1	0	3.760000e+01
452.511078	1.319721	city	8	1	1.163924	1.163924	0	1	0	0	CorrectCommission	0.132230	0.524615	1	0	3.765000e+01
453.817322	1.292767	city	6	1	1.197724	1.197724	0	1	0	0	CorrectCommission	0.000475	0.529088	1	0	3.770000e+01
455.103577	1.279748	city	2	1	1.202538	1.202538	0	1	0	0	CorrectCommission	0.019374	0.539700	1	0	3.775000e+01
456.396545	1.306217	city	9	1	1.124396	1.124396	0	1	0	0	CorrectCommission	0.287422	0.555054	1	0	3.780000e+01
457.696136	1.292935	city	7	1	1.451139	1.451139	0	1	0	0	CorrectCommission	0.995424	0.573202	1	0	3.785000e+01
458.995728	1.306233	city	10	1	1.340764	1.340764	0	1	0	0	CorrectCommission	0.562071	0.591856	1	0	3.790000e+01
460.295288	1.292904	city	5	1	1.359363	1.359363	0	1	0	0	CorrectCommission	0.635094	0.608693	1	0	3.795000e+01
460.941742	9.596684	break	0	0	0.000000	1.480333	0	0	0	0	ThoughtProbe	1.110044	0.621681	1	38	38
471.184937	1.293048	city	8	1	1.553411	1.553411	0	1	0	0	CorrectCommission	1.396957	0.629406	1	0	3.788235e+01
472.477875	1.292826	city	7	1	1.428330	1.428330	0	1	0	0	CorrectCommission	0.905871	0.631303	1	0	3.776471e+01
473.770782	1.292991	city	2	1	1.070482	1.070482	0	1	0	0	CorrectCommission	0.499095	0.627718	1	0	3.764706e+01
475.057068	1.279585	city	4	1	0.970782	0.970782	0	1	0	0	CorrectCommission	0.890536	0.619819	1	0	3.752941e+01
476.349976	1.306209	mountain	8	0	0.000000	1.108948	1	0	0	0	CorrectOmission	0.348073	0.609309	1	0	3.741176e+01
477.642822	1.279491	city	3	1	1.284308	1.284308	0	1	0	0	CorrectCommission	0.340416	0.598156	1	0	3.729412e+01
478.942291	1.319463	city	4	1	1.296187	1.296187	0	1	0	0	CorrectCommission	0.387055	0.588205	1	0	3.717647e+01
480.275269	1.346464	city	8	1	1.046483	1.046483	0	1	0	0	CorrectCommission	0.593320	0.580828	1	0	3.705882e+01
481.588287	1.279558	city	7	1	1.101972	1.101972	0	1	0	0	CorrectCommission	0.375462	0.576741	1	0	3.694118e+01
482.881165	1.306227	city	3	1	1.136650	1.136650	0	1	0	0	CorrectCommission	0.239310	0.575891	1	0	3.682353e+01
484.180634	1.292688	city	5	1	1.264128	1.264128	0	1	0	0	CorrectCommission	0.261188	0.577536	1	0	3.670588e+01
485.493530	1.333144	city	10	1	1.139483	1.139483	0	1	0	0	CorrectCommission	0.228187	0.580509	1	0	3.658824e+01
486.826569	1.332879	city	9	1	1.009490	1.009490	0	1	0	0	CorrectCommission	0.738561	0.583514	1	0	3.647059e+01
488.146118	1.306251	city	1	1	0.826084	0.826084	0	1	0	0	CorrectCommission	1.458639	0.585483	1	0	3.635294e+01
489.452393	1.306269	city	7	1	0.806174	0.806174	0	1	0	0	CorrectCommission	1.536811	0.585883	1	0	3.623529e+01
490.765198	1.319366	city	3	1	1.108999	1.108999	0	1	0	0	CorrectCommission	0.347874	0.584918	1	0	3.611765e+01
492.071350	1.292920	city	4	1	1.090162	1.090162	0	1	0	0	CorrectCommission	0.421830	0.583549	1	0	36
493.370941	1.306277	city	2	1	1.039656	1.039656	0	1	0	0	CorrectCommission	0.620123	0.583280	1	0	3.588235e+01
494.677185	1.306209	city	10	1	1.067088	1.067088	0	1	0	0	CorrectCommission	0.512424	0.585844	1	0	3.576471e+01
495.970062	1.279544	city	8	1	1.234979	1.234979	0	1	0	0	CorrectCommission	0.146744	0.592772	1	0	3.564706e+01
497.249664	1.279637	city	2	1	1.069098	1.069098	0	1	0	0	CorrectCommission	0.504530	0.604945	1	0	3.552941e+01
498.529236	1.279525	mountain	6	0	0.000000	1.188624	1	0	0	0	CorrectOmission	0.035253	0.622217	1	0	3.541176e+01
499.815521	1.293057	city	8	1	1.329118	1.329118	0	1	0	0	CorrectCommission	0.516348	0.643185	1	0	3.529412e+01
501.128448	1.332807	city	10	1	1.226141	1.226141	0	1	0	0	CorrectCommission	0.112044	0.665177	1	0	3.517647e+01
502.434692	1.279692	city	1	1	1.177975	1.177975	0	1	0	0	CorrectCommission	0.077064	0.684482	1	0	3.505882e+01
503.714325	1.279572	city	9	1	1.558560	1.558560	0	1	0	0	CorrectCommission	1.417174	0.696735	1	0	3.494118e+01
505.007233	1.306240	city	10	1	1.407307	1.407307	0	1	0	0	CorrectCommission	0.823333	0.697494	1	0	3.482353e+01
506.313446	1.306139	city	7	1	1.784718	1.784718	0	1	0	0	CorrectCommission	2.305107	0.682921	1	0	3.470588e+01
507.626312	1.319642	city	1	0	0.000000	1.669934	0	0	0	1	OmissionError	1.854448	0.650300	1	0	3.458824e+01
508.925934	1.279553	city	4	0	0.000000	1.325878	0	0	0	1	OmissionError	0.503627	0.598551	1	0	3.447059e+01
510.205414	1.279446	city	8	1	1.015470	1.015470	0	1	0	0	CorrectCommission	0.715083	0.528467	1	0	3.435294e+01
511.491638	1.292974	city	6	1	1.001632	1.001632	0	1	0	0	CorrectCommission	0.769411	0.442662	1	0	3.423529e+01
512.778015	1.279741	city	1	0	0.000000	1.101912	0	0	0	1	OmissionError	0.375696	0.345377	1	0	3.411765e+01
516.716797	6.597929	break	0	0	1.259251	1.259251	0	0	0	0	ThoughtProbe	0.242040	0.242040	1	34	34
