onset	duration	trial_type	image_type	Press	ReactionTime	ReactionTime_Interpolated	CorrectOmission	CorrectCommission	CommissionError	OmissionError	response_type	nonsmoothVarianceTimeCourse	VarianceTimeCourse	In_the_Zone	ThoughtProbe	ThoughtProbe_Interpolated
0.652784	1.279584	city	3	1	1.136280	1.136280	0	1	0	0	CorrectCommission	0.296211	0.296211	1	0	55
1.938944	1.292735	city	5	1	0.831388	0.831388	0	1	0	0	CorrectCommission	0.846592	0.392530	1	0	55
3.225192	1.279760	city	1	1	0.967292	0.967292	0	1	0	0	CorrectCommission	0.337192	0.486317	1	0	55
4.504852	1.279561	city	10	1	0.911700	0.911700	0	1	0	0	CorrectCommission	0.545566	0.575087	1	0	55
5.784358	1.279449	city	3	1	0.964680	0.964680	0	1	0	0	CorrectCommission	0.346983	0.656376	1	0	55
7.063869	1.279572	mountain	7	1	0.703015	0.703015	0	0	1	0	CommissionError	1.327763	0.727854	1	0	55
8.343445	1.279582	city	9	1	0.768953	0.768953	0	1	0	0	CorrectCommission	1.080611	0.787404	0	0	55
9.623026	1.279579	city	6	1	0.811143	0.811143	0	1	0	0	CorrectCommission	0.922475	0.833294	0	0	55
10.902592	1.279553	city	3	1	0.642631	0.642631	0	1	0	0	CorrectCommission	1.554096	0.864332	0	0	55
12.182242	1.279749	city	6	1	0.808113	0.808113	0	1	0	0	CorrectCommission	0.933832	0.879962	0	0	55
13.468577	1.292921	city	4	1	0.775391	0.775391	0	1	0	0	CorrectCommission	1.056479	0.880420	0	0	55
14.754776	1.279476	city	5	1	0.775140	0.775140	0	1	0	0	CorrectCommission	1.057421	0.866726	0	0	55
16.034309	1.279590	mountain	2	0	0.000000	0.668275	1	0	0	0	CorrectOmission	1.457975	0.840657	0	0	55
17.313864	1.279521	mountain	8	1	0.758987	0.758987	0	0	1	0	CommissionError	1.117966	0.804602	0	0	55
18.593439	1.279629	city	5	1	1.351468	1.351468	0	1	0	0	CorrectCommission	1.102783	0.761384	0	0	55
19.886425	1.306342	city	6	1	1.151949	1.151949	0	1	0	0	CorrectCommission	0.354943	0.713975	1	0	55
21.179373	1.279552	city	1	1	1.020717	1.020717	0	1	0	0	CorrectCommission	0.136947	0.665258	1	0	55
22.458935	1.279573	city	8	1	1.127169	1.127169	0	1	0	0	CorrectCommission	0.262060	0.617755	1	0	55
23.738445	1.279448	city	6	1	1.019100	1.019100	0	1	0	0	CorrectCommission	0.143005	0.573465	1	0	55
25.017958	1.279579	city	5	1	0.858491	0.858491	0	1	0	0	CorrectCommission	0.745002	0.533796	1	0	55
26.297531	1.279566	city	7	1	0.968042	0.968042	0	1	0	0	CorrectCommission	0.334383	0.499589	1	0	55
27.577095	1.279565	city	4	1	0.911959	0.911959	0	1	0	0	CorrectCommission	0.544595	0.471212	1	0	55
28.856754	1.279752	city	10	1	0.863380	0.863380	0	1	0	0	CorrectCommission	0.726680	0.448693	1	0	55
30.136427	1.279595	city	8	1	1.174654	1.174654	0	1	0	0	CorrectCommission	0.440044	0.431827	1	0	55
31.415937	1.279424	city	9	1	1.129649	1.129649	0	1	0	0	CorrectCommission	0.271358	0.420315	1	0	55
32.695507	1.279717	city	3	1	0.932659	0.932659	0	1	0	0	CorrectCommission	0.467008	0.413774	1	0	55
33.988461	1.306187	city	2	1	1.060875	1.060875	0	1	0	0	CorrectCommission	0.013576	0.411760	1	0	55
35.281364	1.279623	city	6	1	1.138428	1.138428	0	1	0	0	CorrectCommission	0.304261	0.413732	1	0	55
36.567631	1.292909	city	4	1	1.097983	1.097983	0	1	0	0	CorrectCommission	0.152666	0.419022	1	0	55
37.853901	1.279632	city	2	1	1.036438	1.036438	0	1	0	0	CorrectCommission	0.078021	0.426854	1	0	55
39.146725	1.306019	city	1	1	0.849184	0.849184	0	1	0	0	CorrectCommission	0.779888	0.436344	1	0	55
40.439526	1.279585	city	3	1	1.284675	1.284675	0	1	0	0	CorrectCommission	0.852426	0.446559	1	0	55
41.725853	1.293067	mountain	2	0	0.000000	1.235594	1	0	0	0	CorrectOmission	0.668459	0.456604	1	0	55
43.012188	1.279606	city	1	1	1.090112	1.090112	0	1	0	0	CorrectCommission	0.123162	0.465697	1	0	55
44.291691	1.279395	city	6	1	1.236401	1.236401	0	1	0	0	CorrectCommission	0.671484	0.473191	1	0	55
45.571201	1.279632	city	7	1	1.245492	1.245492	0	1	0	0	CorrectCommission	0.705559	0.478593	1	0	55
46.850861	1.279683	city	10	1	1.097860	1.097860	0	1	0	0	CorrectCommission	0.152205	0.481587	1	0	55
48.183811	1.386216	city	9	1	1.204690	1.204690	0	1	0	0	CorrectCommission	0.552624	0.482030	1	0	55
49.549953	1.346073	city	10	1	1.058337	1.058337	0	1	0	0	CorrectCommission	0.004061	0.479888	1	0	55
50.862789	1.279596	city	4	1	1.409395	1.409395	0	1	0	0	CorrectCommission	1.319904	0.475257	1	0	55
52.149033	1.292893	city	7	1	1.060325	1.060325	0	1	0	0	CorrectCommission	0.011515	0.468303	1	0	55
53.455315	1.319669	city	9	1	0.756691	0.756691	0	1	0	0	CorrectCommission	1.126571	0.459331	1	0	55
54.754890	1.279484	city	1	1	0.963612	0.963612	0	1	0	0	CorrectCommission	0.350987	0.448668	1	0	55
56.034409	1.279552	city	8	1	1.158336	1.158336	0	1	0	0	CorrectCommission	0.378879	0.436735	1	0	55
57.314068	1.279765	city	5	1	1.039246	1.039246	0	1	0	0	CorrectCommission	0.067493	0.423958	1	0	55
60.619873	5.331845	break	0	0	0.000000	0.963372	0	0	0	0	ThoughtProbe	0.351888	0.410781	1	55	55
63.938732	1.305878	city	1	1	0.930376	0.930376	0	1	0	0	CorrectCommission	0.475562	0.397693	1	0	5.430435e+01
65.231506	1.279666	city	10	1	0.939924	0.939924	0	1	0	0	CorrectCommission	0.439774	0.385189	1	0	5.360870e+01
66.531036	1.319391	city	8	1	1.209337	1.209337	0	1	0	0	CorrectCommission	0.570042	0.373839	1	0	5.291304e+01
67.830544	1.279628	city	2	1	1.142163	1.142163	0	1	0	0	CorrectCommission	0.318261	0.364321	1	0	5.221739e+01
69.110153	1.279596	mountain	9	0	0.000000	1.110545	1	0	0	0	CorrectOmission	0.199750	0.357496	1	0	5.152174e+01
70.389793	1.279676	city	5	1	1.032433	1.032433	0	1	0	0	CorrectCommission	0.093033	0.354425	1	0	5.082609e+01
71.669388	1.279521	city	9	1	0.825776	0.825776	0	1	0	0	CorrectCommission	0.867628	0.356361	1	0	5.013043e+01
72.948799	1.279303	city	7	1	1.034875	1.034875	0	1	0	0	CorrectCommission	0.083878	0.364672	1	0	4.943478e+01
74.235016	1.293124	city	5	1	1.049550	1.049550	0	1	0	0	CorrectCommission	0.028874	0.380742	1	0	4.873913e+01
75.528091	1.293023	city	10	1	0.990852	0.990852	0	1	0	0	CorrectCommission	0.248885	0.405778	1	0	4.804348e+01
76.821053	1.292901	city	2	1	1.193827	1.193827	0	1	0	0	CorrectCommission	0.511908	0.440565	1	0	4.734783e+01
78.107224	1.279449	city	7	1	0.980787	0.980787	0	1	0	0	CorrectCommission	0.286613	0.485244	1	0	4.665217e+01
79.393478	1.293048	city	1	1	0.996345	0.996345	0	1	0	0	CorrectCommission	0.228298	0.539104	1	0	4.595652e+01
80.686409	1.292826	city	3	1	1.140701	1.140701	0	1	0	0	CorrectCommission	0.312782	0.600392	1	0	4.526087e+01
81.985992	1.306334	city	8	1	0.875377	0.875377	0	1	0	0	CorrectCommission	0.681712	0.666291	1	0	4.456522e+01
83.292282	1.306240	mountain	5	1	1.085585	1.085585	0	0	1	0	CommissionError	0.106194	0.732989	1	0	4.386957e+01
84.598503	1.306217	city	2	1	1.180357	1.180357	0	1	0	0	CorrectCommission	0.461422	0.796036	0	0	4.317391e+01
85.904663	1.306103	city	7	1	0.941439	0.941439	0	1	0	0	CorrectCommission	0.434095	0.850709	0	0	4.247826e+01
87.204247	1.293058	city	6	1	0.875077	0.875077	0	1	0	0	CorrectCommission	0.682835	0.892630	0	0	4.178261e+01
88.497223	1.292887	mountain	1	1	2.116317	2.116317	0	0	1	0	CommissionError	3.969602	0.918338	0	0	4.108696e+01
89.803459	1.319591	city	5	1	1.748819	1.748819	0	1	0	0	CorrectCommission	2.592140	0.925724	0	0	4.039130e+01
91.116280	1.306053	city	2	1	1.400319	1.400319	0	1	0	0	CorrectCommission	1.285888	0.914494	0	0	3.969565e+01
92.475822	1.413030	city	8	1	0.960109	0.960109	0	1	0	0	CorrectCommission	0.364117	0.886158	0	0	39
93.842049	1.319429	city	9	1	1.118805	1.118805	0	1	0	0	CorrectCommission	0.230710	0.843862	0	0	3.830435e+01
95.141624	1.279720	city	8	1	0.992762	0.992762	0	1	0	0	CorrectCommission	0.241726	0.792002	0	0	3.760870e+01
96.427940	1.292904	mountain	8	0	0.000000	0.787524	1	0	0	0	CorrectOmission	1.011003	0.735728	1	0	3.691304e+01
97.727440	1.306093	city	7	1	0.727317	0.727317	0	1	0	0	CorrectCommission	1.236672	0.680372	1	0	3.621739e+01
99.053635	1.346306	city	5	1	1.036367	1.036367	0	1	0	0	CorrectCommission	0.078284	0.630951	1	0	3.552174e+01
100.373230	1.292881	city	3	1	1.152519	1.152519	0	1	0	0	CorrectCommission	0.357078	0.591667	1	0	3.482609e+01
101.659538	1.279730	city	10	1	1.085308	1.085308	0	1	0	0	CorrectCommission	0.105158	0.565567	1	0	3.413043e+01
102.945824	1.292846	city	7	1	1.138167	1.138167	0	1	0	0	CorrectCommission	0.303282	0.554350	1	0	3.343478e+01
104.232048	1.279599	city	10	1	1.036030	1.036030	0	1	0	0	CorrectCommission	0.079549	0.558258	1	0	3.273913e+01
105.531616	1.319545	city	5	1	1.036377	1.036377	0	1	0	0	CorrectCommission	0.078249	0.576153	1	0	3.204348e+01
106.837845	1.292906	city	9	1	1.053291	1.053291	0	1	0	0	CorrectCommission	0.014851	0.605701	1	0	3.134783e+01
108.130638	1.292683	city	4	1	1.181869	1.181869	0	1	0	0	CorrectCommission	0.467089	0.643706	1	0	3.065217e+01
109.416801	1.279650	city	9	1	0.810521	0.810521	0	1	0	0	CorrectCommission	0.924805	0.686505	1	0	2.995652e+01
110.716492	1.319721	city	4	1	0.739524	0.739524	0	1	0	0	CorrectCommission	1.190917	0.730419	1	0	2.926087e+01
112.029503	1.306298	city	9	1	0.806780	0.806780	0	1	0	0	CorrectCommission	0.938828	0.772200	0	0	2.856522e+01
113.335739	1.306178	city	4	1	0.608328	0.608328	0	1	0	0	CorrectCommission	1.682671	0.809353	0	0	2.786957e+01
114.641953	1.306259	city	9	1	0.707608	0.707608	0	1	0	0	CorrectCommission	1.310547	0.840299	0	0	2.717391e+01
115.941536	1.292897	city	3	1	0.778113	0.778113	0	1	0	0	CorrectCommission	1.046277	0.864450	0	0	2.647826e+01
117.241013	1.306066	city	10	1	0.872905	0.872905	0	1	0	0	CorrectCommission	0.690979	0.881999	0	0	2.578261e+01
118.533836	1.279574	city	3	1	1.157891	1.157891	0	1	0	0	CorrectCommission	0.377213	0.893790	0	0	2.508696e+01
119.826813	1.306388	city	7	1	0.929783	0.929783	0	1	0	0	CorrectCommission	0.477785	0.901009	0	0	2.439130e+01
121.133064	1.306106	city	5	1	0.890565	0.890565	0	1	0	0	CorrectCommission	0.624782	0.904909	0	0	2.369565e+01
121.786118	8.623834	break	0	1	0.708859	0.708859	0	0	0	0	ThoughtProbe	1.305858	0.906619	0	23	23
131.056396	1.292903	city	2	1	1.690739	1.690739	0	1	0	0	CorrectCommission	2.374445	0.906975	0	0	2.330000e+01
132.362625	1.319548	city	7	1	1.153129	1.153129	0	1	0	0	CorrectCommission	0.359364	0.906448	0	0	2.360000e+01
133.668945	1.293093	city	4	1	1.046784	1.046784	0	1	0	0	CorrectCommission	0.039239	0.905251	0	0	2.390000e+01
134.955200	1.279402	city	3	1	0.887625	0.887625	0	1	0	0	CorrectCommission	0.635803	0.903284	0	0	2.420000e+01
136.241425	1.293065	city	2	1	0.818041	0.818041	0	1	0	0	CorrectCommission	0.896618	0.900243	0	0	2.450000e+01
137.547760	1.319589	city	9	1	0.684870	0.684870	0	1	0	0	CorrectCommission	1.395772	0.895777	0	0	2.480000e+01
138.853912	1.292737	city	8	1	0.718619	0.718619	0	1	0	0	CorrectCommission	1.269274	0.889574	0	0	2.510000e+01
140.160080	1.319596	city	6	1	0.738979	0.738979	0	1	0	0	CorrectCommission	1.192962	0.881486	0	0	2.540000e+01
141.459671	1.279564	city	4	1	0.818940	0.818940	0	1	0	0	CorrectCommission	0.893251	0.871586	0	0	2.570000e+01
142.752625	1.306369	city	3	1	0.925191	0.925191	0	1	0	0	CorrectCommission	0.494996	0.860203	0	0	26
144.045624	1.279627	city	9	1	0.967534	0.967534	0	1	0	0	CorrectCommission	0.336288	0.847903	0	0	2.630000e+01
145.331787	1.292696	city	3	1	0.792250	0.792250	0	1	0	0	CorrectCommission	0.993290	0.835393	0	0	2.660000e+01
146.617935	1.279577	mountain	10	1	0.717155	0.717155	0	0	1	0	CommissionError	1.274764	0.823442	0	0	2.690000e+01
147.897598	1.279753	city	10	1	0.807061	0.807061	0	1	0	0	CorrectCommission	0.937774	0.812823	0	0	2.720000e+01
149.190521	1.306118	mountain	7	1	0.940733	0.940733	0	0	1	0	CommissionError	0.436744	0.804184	0	0	2.750000e+01
150.496765	1.306347	city	2	1	1.316541	1.316541	0	1	0	0	CorrectCommission	0.971869	0.797957	0	0	2.780000e+01
151.796753	1.293635	mountain	2	0	0.000000	1.252153	1	0	0	0	CorrectOmission	0.730526	0.794262	0	0	2.810000e+01
153.096329	1.305517	city	3	1	1.001871	1.001871	0	1	0	0	CorrectCommission	0.207584	0.792869	0	0	2.840000e+01
154.388870	1.279556	city	2	1	0.820002	0.820002	0	1	0	0	CorrectCommission	0.889270	0.793178	0	0	2.870000e+01
155.681686	1.306094	city	1	1	1.210598	1.210598	0	1	0	0	CorrectCommission	0.574771	0.794235	0	0	29
156.987930	1.306394	city	8	1	1.013159	1.013159	0	1	0	0	CorrectCommission	0.165274	0.794898	0	0	2.930000e+01
158.287537	1.292807	city	9	1	1.581785	1.581785	0	1	0	0	CorrectCommission	1.966059	0.793924	0	0	2.960000e+01
159.580383	1.292897	city	8	1	1.326085	1.326085	0	1	0	0	CorrectCommission	1.007642	0.790099	0	0	2.990000e+01
160.886627	1.319599	city	7	1	1.272205	1.272205	0	1	0	0	CorrectCommission	0.805688	0.782594	0	0	3.020000e+01
162.192856	1.292859	city	6	1	1.364991	1.364991	0	1	0	0	CorrectCommission	1.153469	0.770978	0	0	3.050000e+01
163.485748	1.292920	city	4	1	1.253602	1.253602	0	1	0	0	CorrectCommission	0.735959	0.755320	0	0	3.080000e+01
164.805389	1.346366	city	3	1	1.140840	1.140840	0	1	0	0	CorrectCommission	0.313302	0.736278	1	0	3.110000e+01
166.138351	1.319540	city	1	1	0.952113	0.952113	0	1	0	0	CorrectCommission	0.394090	0.715087	1	0	3.140000e+01
167.444565	1.292907	city	2	1	0.862624	0.862624	0	1	0	0	CorrectCommission	0.729513	0.693532	1	0	3.170000e+01
168.750809	1.319567	city	8	1	0.581107	0.581107	0	1	0	0	CorrectCommission	1.784701	0.673866	1	0	32
170.063629	1.306077	city	5	1	0.950770	0.950770	0	1	0	0	CorrectCommission	0.399121	0.658657	1	0	3.230000e+01
171.376556	1.319783	city	3	1	1.097498	1.097498	0	1	0	0	CorrectCommission	0.150848	0.650651	1	0	3.260000e+01
172.689545	1.306179	city	2	1	1.222274	1.222274	0	1	0	0	CorrectCommission	0.618536	0.652422	1	0	3.290000e+01
174.002335	1.319408	city	10	1	1.197803	1.197803	0	1	0	0	CorrectCommission	0.526811	0.666054	1	0	3.320000e+01
175.308578	1.293083	city	9	1	1.051465	1.051465	0	1	0	0	CorrectCommission	0.021693	0.692784	1	0	3.350000e+01
176.608231	1.306223	city	7	1	0.912685	0.912685	0	1	0	0	CorrectCommission	0.541873	0.732725	1	0	3.380000e+01
177.901123	1.279551	city	1	1	0.987560	0.987560	0	1	0	0	CorrectCommission	0.261224	0.784624	0	0	3.410000e+01
179.193985	1.306191	city	7	1	1.051565	1.051565	0	1	0	0	CorrectCommission	0.021322	0.845819	0	0	3.440000e+01
180.500183	1.306195	city	3	1	0.853461	0.853461	0	1	0	0	CorrectCommission	0.763855	0.912356	0	0	3.470000e+01
181.153290	12.662465	break	0	1	0.524441	0.524441	0	0	0	0	ThoughtProbe	1.997097	0.979314	0	35	35
194.468948	1.306385	city	4	1	0.919945	0.919945	0	1	0	0	CorrectCommission	0.514660	1.041337	0	0	3.458824e+01
195.768524	1.292776	city	5	1	1.054045	1.054045	0	1	0	0	CorrectCommission	0.012026	1.093318	0	0	3.417647e+01
197.054688	1.279558	city	7	1	1.737058	1.737058	0	1	0	0	CorrectCommission	2.548058	1.131022	0	0	3.376471e+01
198.360962	1.332986	city	4	1	1.848281	1.848281	0	1	0	0	CorrectCommission	2.964946	1.151602	0	0	3.335294e+01
199.680603	1.306297	mountain	7	0	0.000000	1.748210	1	0	0	0	CorrectOmission	2.589858	1.154146	0	0	3.294118e+01
200.973541	1.279578	city	9	1	1.529456	1.529456	0	1	0	0	CorrectCommission	1.769919	1.139778	0	0	3.252941e+01
202.253036	1.279423	city	8	1	1.284628	1.284628	0	1	0	0	CorrectCommission	0.852249	1.111477	0	0	3.211765e+01
203.532623	1.279745	city	3	1	1.198214	1.198214	0	1	0	0	CorrectCommission	0.528354	1.073645	0	0	3.170588e+01
204.838867	1.332750	city	10	1	0.956788	0.956788	0	1	0	0	CorrectCommission	0.376563	1.031464	0	0	3.129412e+01
206.158432	1.306381	city	6	1	1.008347	1.008347	0	1	0	0	CorrectCommission	0.183312	0.990189	0	0	3.088235e+01
207.478073	1.332891	city	1	1	0.929354	0.929354	0	1	0	0	CorrectCommission	0.479392	0.954495	0	0	3.047059e+01
208.810974	1.332915	city	7	1	0.777501	0.777501	0	1	0	0	CorrectCommission	1.048573	0.927987	0	0	3.005882e+01
210.130463	1.306063	city	10	1	0.631432	0.631432	0	1	0	0	CorrectCommission	1.596070	0.912909	0	0	2.964706e+01
211.423370	1.279733	city	5	1	0.994412	0.994412	0	1	0	0	CorrectCommission	0.235541	0.910048	0	0	2.923529e+01
212.709641	1.292821	city	6	1	0.996959	0.996959	0	1	0	0	CorrectCommission	0.225995	0.918874	0	0	2.882353e+01
214.009171	1.306246	city	8	1	0.846836	0.846836	0	1	0	0	CorrectCommission	0.788690	0.937733	0	0	2.841176e+01
215.315369	1.306151	city	3	1	0.793234	0.793234	0	1	0	0	CorrectCommission	0.989600	0.964157	0	0	28
216.608322	1.279761	city	7	1	1.234212	1.234212	0	1	0	0	CorrectCommission	0.663281	0.995278	0	0	2.758824e+01
217.907852	1.319286	city	10	1	0.925814	0.925814	0	1	0	0	CorrectCommission	0.492661	1.028231	0	0	2.717647e+01
219.240662	1.346343	city	8	1	1.687032	1.687032	0	1	0	0	CorrectCommission	2.360549	1.060445	0	0	2.676471e+01
220.573685	1.319707	city	5	1	1.662466	1.662466	0	1	0	0	CorrectCommission	2.268470	1.089832	0	0	2.635294e+01
221.879929	1.292758	city	9	1	1.432498	1.432498	0	1	0	0	CorrectCommission	1.406501	1.114970	0	0	2.594118e+01
223.199493	1.346396	city	8	1	1.257018	1.257018	0	1	0	0	CorrectCommission	0.748764	1.135068	0	0	2.552941e+01
224.512482	1.279558	mountain	1	0	0.000000	1.105752	1	0	0	0	CorrectOmission	0.181784	1.149861	0	0	2.511765e+01
225.798676	1.292829	city	5	1	0.939632	0.939632	0	1	0	0	CorrectCommission	0.440868	1.159421	0	0	2.470588e+01
227.104904	1.319640	city	9	1	0.719594	0.719594	0	1	0	0	CorrectCommission	1.265621	1.164057	0	0	2.429412e+01
228.404434	1.279414	city	4	1	0.540941	0.540941	0	1	0	0	CorrectCommission	1.935251	1.164198	0	0	2.388235e+01
229.697281	1.306266	city	8	1	1.669104	1.669104	0	1	0	0	CorrectCommission	2.293353	1.160393	0	0	2.347059e+01
230.996933	1.293048	city	7	1	1.442330	1.442330	0	1	0	0	CorrectCommission	1.443352	1.153285	0	0	2.305882e+01
232.309830	1.332755	city	2	1	1.101147	1.101147	0	1	0	0	CorrectCommission	0.164525	1.143620	0	0	2.264706e+01
233.616074	1.279722	city	6	1	0.697113	0.697113	0	1	0	0	CorrectCommission	1.349883	1.132225	0	0	2.223529e+01
234.928970	1.346063	city	3	1	0.850921	0.850921	0	1	0	0	CorrectCommission	0.773379	1.119919	0	0	2.182353e+01
236.275177	1.346377	city	10	1	0.930151	0.930151	0	1	0	0	CorrectCommission	0.476406	1.107566	0	0	2.141176e+01
236.948364	9.170172	break	0	1	0.681377	0.681377	0	0	0	0	ThoughtProbe	1.408867	1.095992	0	21	21
246.771652	1.306220	city	6	1	1.712742	1.712742	0	1	0	0	CorrectCommission	2.456915	1.085923	0	0	2.117500e+01
248.097961	1.346405	city	10	1	1.153567	1.153567	0	1	0	0	CorrectCommission	0.361004	1.078000	0	0	2.135000e+01
249.417542	1.292736	city	4	1	0.992963	0.992963	0	1	0	0	CorrectCommission	0.240974	1.072764	0	0	2.152500e+01
250.710434	1.293063	mountain	7	1	0.695846	0.695846	0	0	1	0	CommissionError	1.354634	1.070547	0	0	2.170000e+01
252.010086	1.306236	city	1	1	0.781090	0.781090	0	1	0	0	CorrectCommission	1.035120	1.071430	0	0	2.187500e+01
253.309662	1.292911	mountain	9	0	0.000000	1.293338	1	0	0	0	CorrectOmission	0.884899	1.075239	0	0	2.205000e+01
254.602524	1.292825	city	7	1	1.544504	1.544504	0	1	0	0	CorrectCommission	1.826322	1.081525	0	0	2.222500e+01
255.902115	1.306340	city	9	1	0.846498	0.846498	0	1	0	0	CorrectCommission	0.789955	1.089495	0	0	2.240000e+01
257.208405	1.306234	city	8	1	0.844294	0.844294	0	1	0	0	CorrectCommission	0.798216	1.098152	0	0	2.257500e+01
258.534546	1.346053	city	3	1	0.899617	0.899617	0	1	0	0	CorrectCommission	0.590855	1.106320	0	0	2.275000e+01
259.867432	1.319736	city	2	1	0.701060	0.701060	0	1	0	0	CorrectCommission	1.335090	1.112855	0	0	2.292500e+01
261.180328	1.306052	city	6	1	0.887844	0.887844	0	1	0	0	CorrectCommission	0.634982	1.116810	0	0	2.310000e+01
262.486542	1.306401	city	8	1	0.634188	0.634188	0	1	0	0	CorrectCommission	1.585739	1.117732	0	0	2.327500e+01
263.786133	1.292760	city	3	1	0.556313	0.556313	0	1	0	0	CorrectCommission	1.877634	1.115699	0	0	2.345000e+01
265.079041	1.293064	city	4	1	0.515681	0.515681	0	1	0	0	CorrectCommission	2.029931	1.111474	0	0	2.362500e+01
266.385345	1.319559	city	9	1	0.627373	0.627373	0	1	0	0	CorrectCommission	1.611286	1.106401	0	0	2.380000e+01
267.691589	1.292908	city	8	1	0.934477	0.934477	0	1	0	0	CorrectCommission	0.460193	1.102230	0	0	2.397500e+01
268.991150	1.306237	city	3	1	1.008240	1.008240	0	1	0	0	CorrectCommission	0.183712	1.100812	0	0	2.415000e+01
270.297394	1.306233	city	6	1	0.879874	0.879874	0	1	0	0	CorrectCommission	0.664855	1.103615	0	0	2.432500e+01
271.610321	1.319599	city	10	1	0.834107	0.834107	0	1	0	0	CorrectCommission	0.836399	1.111418	0	0	2.450000e+01
272.916565	1.292899	city	5	1	0.711470	0.711470	0	1	0	0	CorrectCommission	1.296072	1.124100	0	0	2.467500e+01
274.216125	1.306219	city	8	1	0.996964	0.996964	0	1	0	0	CorrectCommission	0.225978	1.140566	0	0	2.485000e+01
275.522369	1.306260	city	3	1	0.728024	0.728024	0	1	0	0	CorrectCommission	1.234021	1.158906	0	0	2.502500e+01
276.821930	1.292881	city	2	1	0.639195	0.639195	0	1	0	0	CorrectCommission	1.566973	1.176677	0	0	2.520000e+01
278.134735	1.332734	mountain	8	1	0.842008	0.842008	0	0	1	0	CommissionError	0.806787	1.191315	0	0	2.537500e+01
279.454254	1.306264	city	9	1	1.663875	1.663875	0	1	0	0	CorrectCommission	2.273750	1.200563	0	0	2.555000e+01
280.773895	1.333038	city	4	1	1.686832	1.686832	0	1	0	0	CorrectCommission	2.359800	1.202728	0	0	2.572500e+01
282.100189	1.319584	city	7	1	1.702200	1.702200	0	1	0	0	CorrectCommission	2.417402	1.196948	0	0	2.590000e+01
283.426422	1.332830	city	8	1	1.080144	1.080144	0	1	0	0	CorrectCommission	0.085798	1.183146	0	0	2.607500e+01
284.745911	1.306201	city	2	1	0.989912	0.989912	0	1	0	0	CorrectCommission	0.252410	1.162018	0	0	2.625000e+01
286.045532	1.293004	city	3	1	1.104614	1.104614	0	1	0	0	CorrectCommission	0.177518	1.134676	0	0	2.642500e+01
287.345154	1.306253	city	8	1	1.765423	1.765423	0	1	0	0	CorrectCommission	2.654376	1.102472	0	0	2.660000e+01
288.658051	1.319550	city	6	0	0.000000	1.374678	0	0	0	1	OmissionError	1.189779	1.066720	0	0	2.677500e+01
289.970886	1.306121	city	9	1	0.831312	0.831312	0	1	0	0	CorrectCommission	0.846875	1.028717	0	0	2.695000e+01
291.303711	1.359530	city	2	1	1.034258	1.034258	0	1	0	0	CorrectCommission	0.086189	0.989549	0	0	2.712500e+01
292.643311	1.319681	city	5	1	0.829941	0.829941	0	1	0	0	CorrectCommission	0.852016	0.950172	0	0	2.730000e+01
293.962952	1.319597	city	2	1	1.678487	1.678487	0	1	0	0	CorrectCommission	2.328519	0.911409	0	0	2.747500e+01
295.282440	1.319384	city	5	1	1.403800	1.403800	0	1	0	0	CorrectCommission	1.298935	0.874002	0	0	2.765000e+01
296.621918	1.359553	city	7	1	1.175229	1.175229	0	1	0	0	CorrectCommission	0.442199	0.838660	0	0	2.782500e+01
297.301697	9.476878	break	0	0	0.000000	1.084885	0	0	0	0	ThoughtProbe	0.103570	0.805958	0	28	28
307.445068	1.332967	mountain	5	1	1.121858	1.121858	0	0	1	0	CommissionError	0.242155	0.776256	0	0	2.836957e+01
308.771362	1.319652	city	3	1	1.275239	1.275239	0	1	0	0	CorrectCommission	0.817058	0.749642	0	0	2.873913e+01
310.070984	1.279581	city	9	1	0.877671	0.877671	0	1	0	0	CorrectCommission	0.673113	0.725969	1	0	2.910870e+01
311.397217	1.372865	city	7	1	0.977684	0.977684	0	1	0	0	CorrectCommission	0.298241	0.704888	1	0	2.947826e+01
312.750031	1.332760	city	9	1	0.732625	0.732625	0	1	0	0	CorrectCommission	1.216778	0.685958	1	0	2.984783e+01
314.096252	1.359701	city	7	1	0.776331	0.776331	0	1	0	0	CorrectCommission	1.052959	0.668799	1	0	3.021739e+01
315.422546	1.292904	city	6	1	0.870734	0.870734	0	1	0	0	CorrectCommission	0.699116	0.653331	1	0	3.058696e+01
316.708740	1.279445	city	1	1	1.092106	1.092106	0	1	0	0	CorrectCommission	0.130635	0.639862	1	0	3.095652e+01
317.994934	1.292957	city	10	1	0.731269	0.731269	0	1	0	0	CorrectCommission	1.221860	0.629177	1	0	3.132609e+01
319.287903	1.293009	city	6	1	1.235935	1.235935	0	1	0	0	CorrectCommission	0.669741	0.622412	1	0	3.169565e+01
320.580872	1.292894	city	10	1	1.124448	1.124448	0	1	0	0	CorrectCommission	0.251861	0.621013	1	0	3.206522e+01
321.880371	1.306126	city	9	1	0.993567	0.993567	0	1	0	0	CorrectCommission	0.238711	0.626401	1	0	3.243478e+01
323.179871	1.292883	city	8	1	0.795974	0.795974	0	1	0	0	CorrectCommission	0.979333	0.639697	1	0	3.280435e+01
324.486084	1.319548	city	5	1	1.026468	1.026468	0	1	0	0	CorrectCommission	0.115389	0.661362	1	0	3.317391e+01
325.812317	1.332887	city	9	1	0.983696	0.983696	0	1	0	0	CorrectCommission	0.275707	0.691053	1	0	3.354348e+01
327.145294	1.333057	city	5	1	0.976451	0.976451	0	1	0	0	CorrectCommission	0.302865	0.727419	1	0	3.391304e+01
328.464966	1.306279	city	2	1	0.848678	0.848678	0	1	0	0	CorrectCommission	0.781786	0.768129	0	0	3.428261e+01
329.771179	1.306196	city	4	1	0.886719	0.886719	0	1	0	0	CorrectCommission	0.639199	0.810059	0	0	3.465217e+01
331.090668	1.332749	city	5	1	0.853304	0.853304	0	1	0	0	CorrectCommission	0.764447	0.849606	0	0	3.502174e+01
332.416840	1.319580	mountain	3	1	0.840935	0.840935	0	0	1	0	CommissionError	0.810808	0.883179	0	0	3.539130e+01
333.736481	1.319717	mountain	8	1	0.906126	0.906126	0	0	1	0	CommissionError	0.566457	0.907712	0	0	3.576087e+01
335.049438	1.306202	city	7	1	2.017384	2.017384	0	1	0	0	CorrectCommission	3.598782	0.921126	0	0	3.613043e+01
336.368896	1.332749	city	1	0	0.000000	1.560691	0	0	0	1	OmissionError	1.886995	0.922567	0	0	3.650000e+01
337.701752	1.332950	city	6	1	0.847947	0.847947	0	1	0	0	CorrectCommission	0.784525	0.912685	0	0	3.686957e+01
339.014679	1.292885	city	4	1	1.191054	1.191054	0	1	0	0	CorrectCommission	0.501515	0.893410	0	0	3.723913e+01
340.314301	1.306385	city	8	1	0.977162	0.977162	0	1	0	0	CorrectCommission	0.300200	0.867639	0	0	3.760870e+01
341.607300	1.279563	mountain	7	0	0.000000	1.180336	1	0	0	0	CorrectOmission	0.461342	0.838744	0	0	3.797826e+01
342.906830	1.319508	city	2	1	1.385312	1.385312	0	1	0	0	CorrectCommission	1.229636	0.810069	0	0	3.834783e+01
344.233002	1.332859	city	5	1	1.176825	1.176825	0	1	0	0	CorrectCommission	0.448181	0.784408	0	0	3.871739e+01
345.565887	1.332907	city	9	1	0.911126	0.911126	0	1	0	0	CorrectCommission	0.547717	0.763691	0	0	3.908696e+01
346.878815	1.292973	city	2	1	0.965482	0.965482	0	1	0	0	CorrectCommission	0.343978	0.748687	0	0	3.945652e+01
348.178406	1.306193	city	4	1	1.191030	1.191030	0	1	0	0	CorrectCommission	0.501425	0.739041	1	0	3.982609e+01
349.484619	1.306226	city	5	1	1.206110	1.206110	0	1	0	0	CorrectCommission	0.557949	0.733401	1	0	4.019565e+01
350.790802	1.306158	city	8	1	1.166411	1.166411	0	1	0	0	CorrectCommission	0.409146	0.729756	1	0	4.056522e+01
352.090424	1.293062	city	5	1	1.307062	1.307062	0	1	0	0	CorrectCommission	0.936340	0.725820	1	0	4.093478e+01
353.389984	1.306064	city	1	1	1.274490	1.274490	0	1	0	0	CorrectCommission	0.814253	0.719491	1	0	4.130435e+01
354.682892	1.279752	city	5	1	1.631391	1.631391	0	1	0	0	CorrectCommission	2.151996	0.709234	1	0	4.167391e+01
355.995850	1.346135	city	4	1	1.391180	1.391180	0	1	0	0	CorrectCommission	1.251632	0.694310	1	0	4.204348e+01
357.328674	1.319535	city	5	1	1.202728	1.202728	0	1	0	0	CorrectCommission	0.545272	0.674950	1	0	4.241304e+01
358.628296	1.279692	city	1	1	1.134934	1.134934	0	1	0	0	CorrectCommission	0.291165	0.652215	1	0	4.278261e+01
359.927917	1.319567	city	4	1	1.165262	1.165262	0	1	0	0	CorrectCommission	0.404839	0.627783	1	0	4.315217e+01
361.247498	1.319584	city	10	1	1.066654	1.066654	0	1	0	0	CorrectCommission	0.035238	0.603622	1	0	4.352174e+01
362.560364	1.306149	city	2	1	1.221235	1.221235	0	1	0	0	CorrectCommission	0.614640	0.581688	1	0	4.389130e+01
363.873199	1.319544	city	8	1	1.231021	1.231021	0	1	0	0	CorrectCommission	0.651318	0.563547	1	0	4.426087e+01
365.192749	1.319571	city	9	1	1.215862	1.215862	0	1	0	0	CorrectCommission	0.594502	0.550238	1	0	4.463043e+01
365.852539	9.823358	break	0	0	0.000000	1.032444	0	0	0	0	ThoughtProbe	0.092990	0.542134	1	45	45
376.329041	1.306248	city	7	1	0.913948	0.913948	0	1	0	0	CorrectCommission	0.537137	0.538948	1	0	4.397059e+01
377.635345	1.306389	mountain	4	0	0.000000	1.093559	1	0	0	0	CorrectOmission	0.136084	0.539797	1	0	4.294118e+01
378.948334	1.319570	city	8	1	1.192499	1.192499	0	1	0	0	CorrectCommission	0.506933	0.543410	1	0	4.191176e+01
380.274567	1.332915	city	3	1	0.831992	0.831992	0	1	0	0	CorrectCommission	0.844329	0.548271	1	0	4.088235e+01
381.600769	1.319459	city	8	1	0.787117	0.787117	0	1	0	0	CorrectCommission	1.012529	0.552875	1	0	3.985294e+01
382.940308	1.359639	city	2	1	0.937383	0.937383	0	1	0	0	CorrectCommission	0.449298	0.555909	1	0	3.882353e+01
384.266479	1.292739	city	4	1	1.254073	1.254073	0	1	0	0	CorrectCommission	0.737725	0.556393	1	0	3.779412e+01
385.572632	1.319569	city	2	1	1.155998	1.155998	0	1	0	0	CorrectCommission	0.370119	0.553742	1	0	3.676471e+01
386.885620	1.306402	city	7	1	1.269238	1.269238	0	1	0	0	CorrectCommission	0.794564	0.547810	1	0	3.573529e+01
388.225189	1.372715	city	9	1	1.196423	1.196423	0	1	0	0	CorrectCommission	0.521638	0.538828	1	0	3.470588e+01
389.558075	1.293070	city	3	1	0.942110	0.942110	0	1	0	0	CorrectCommission	0.431580	0.527370	1	0	3.367647e+01
390.864380	1.319544	city	1	1	0.782864	0.782864	0	1	0	0	CorrectCommission	1.028471	0.514254	1	0	3.264706e+01
392.163971	1.279609	city	2	1	0.970789	0.970789	0	1	0	0	CorrectCommission	0.324087	0.500452	1	0	3.161765e+01
393.456818	1.306120	city	4	1	1.117098	1.117098	0	1	0	0	CorrectCommission	0.224311	0.487018	1	0	3.058824e+01
394.783081	1.346355	city	7	1	1.094359	1.094359	0	1	0	0	CorrectCommission	0.139081	0.475010	1	0	2.955882e+01
396.115936	1.319406	city	2	1	1.002698	1.002698	0	1	0	0	CorrectCommission	0.204486	0.465479	1	0	2.852941e+01
397.435516	1.319710	city	3	1	0.781632	0.781632	0	1	0	0	CorrectCommission	1.033090	0.459367	1	0	2.750000e+01
398.761749	1.332756	city	2	1	0.852261	0.852261	0	1	0	0	CorrectCommission	0.768356	0.457482	1	0	2.647059e+01
400.087921	1.319601	city	4	1	1.049051	1.049051	0	1	0	0	CorrectCommission	0.030742	0.460475	1	0	2.544118e+01
401.420837	1.346242	city	5	1	0.965211	0.965211	0	1	0	0	CorrectCommission	0.344995	0.468795	1	0	2.441176e+01
402.740387	1.292856	city	4	1	0.992636	0.992636	0	1	0	0	CorrectCommission	0.242197	0.482593	1	0	2.338235e+01
404.046692	1.319726	city	10	1	0.916885	0.916885	0	1	0	0	CorrectCommission	0.526130	0.501705	1	0	2.235294e+01
405.366302	1.319541	city	9	1	1.102844	1.102844	0	1	0	0	CorrectCommission	0.170883	0.525600	1	0	2.132353e+01
406.692474	1.332774	mountain	1	1	1.062798	1.062798	0	0	1	0	CommissionError	0.020783	0.553400	1	0	2.029412e+01
408.038605	1.359508	city	8	1	0.867438	0.867438	0	1	0	0	CorrectCommission	0.711468	0.583918	1	0	1.926471e+01
409.378235	1.319756	city	1	1	1.254008	1.254008	0	1	0	0	CorrectCommission	0.737479	0.615714	1	0	1.823529e+01
410.684479	1.292715	city	9	1	1.383182	1.383182	0	1	0	0	CorrectCommission	1.221653	0.647244	1	0	1.720588e+01
411.984039	1.306420	city	10	1	1.364522	1.364522	0	1	0	0	CorrectCommission	1.151710	0.676947	1	0	1.617647e+01
413.290314	1.306120	city	4	1	1.196255	1.196255	0	1	0	0	CorrectCommission	0.521010	0.703357	1	0	1.514706e+01
414.596466	1.306181	city	6	1	1.199830	1.199830	0	1	0	0	CorrectCommission	0.534411	0.725170	1	0	1.411765e+01
415.936066	1.373037	city	10	1	1.021692	1.021692	0	1	0	0	CorrectCommission	0.133291	0.741297	1	0	1.308824e+01
417.275635	1.306072	city	9	1	0.549987	0.549987	0	1	0	0	CorrectCommission	1.901344	0.750937	0	0	1.205882e+01
418.588470	1.319600	city	2	1	1.064538	1.064538	0	1	0	0	CorrectCommission	0.027305	0.753603	0	0	1.102941e+01
419.248260	8.210618	break	0	1	1.057613	1.057613	0	0	0	0	ThoughtProbe	0.001348	0.749352	0	10	10
428.105408	1.293075	city	5	1	1.734382	1.734382	0	1	0	0	CorrectCommission	2.538027	0.738736	1	0	1.002941e+01
429.418335	1.332734	city	4	1	1.453656	1.453656	0	1	0	0	CorrectCommission	1.485804	0.722843	1	0	1.005882e+01
430.764526	1.359688	mountain	8	0	0.000000	1.239217	1	0	0	0	CorrectOmission	0.682041	0.703383	1	0	1.008824e+01
432.110748	1.332733	city	8	1	1.070648	1.070648	0	1	0	0	CorrectCommission	0.050206	0.682517	1	0	1.011765e+01
433.443604	1.332982	city	10	1	0.927529	0.927529	0	1	0	0	CorrectCommission	0.486234	0.662640	1	0	1.014706e+01
434.769928	1.319664	city	9	1	0.996840	0.996840	0	1	0	0	CorrectCommission	0.226442	0.646177	1	0	1.017647e+01
436.109528	1.359556	city	5	1	0.988652	0.988652	0	1	0	0	CorrectCommission	0.257133	0.635337	1	0	1.020588e+01
437.455658	1.332707	city	6	1	1.296798	1.296798	0	1	0	0	CorrectCommission	0.897868	0.631831	1	0	1.023529e+01
438.795227	1.346411	city	3	1	1.142802	1.142802	0	1	0	0	CorrectCommission	0.320657	0.636704	1	0	1.026471e+01
440.121552	1.306256	city	7	1	1.255887	1.255887	0	1	0	0	CorrectCommission	0.744525	0.650280	1	0	1.029412e+01
441.447784	1.346184	city	2	1	1.002972	1.002972	0	1	0	0	CorrectCommission	0.203459	0.672106	1	0	1.032353e+01
442.780670	1.319563	city	1	1	0.970873	0.970873	0	1	0	0	CorrectCommission	0.323773	0.701075	1	0	1.035294e+01
444.106873	1.332841	city	5	1	0.926703	0.926703	0	1	0	0	CorrectCommission	0.489330	0.735531	1	0	1.038235e+01
445.419678	1.292824	city	4	1	0.732436	0.732436	0	1	0	0	CorrectCommission	1.217484	0.773463	0	0	1.041176e+01
446.732635	1.333034	city	10	1	0.845220	0.845220	0	1	0	0	CorrectCommission	0.794747	0.812732	0	0	1.044118e+01
448.065582	1.332891	mountain	4	1	0.665949	0.665949	0	0	1	0	CommissionError	1.466692	0.851304	0	0	1.047059e+01
449.405151	1.346225	city	6	1	0.850447	0.850447	0	1	0	0	CorrectCommission	0.775154	0.887423	0	0	1.050000e+01
450.724731	1.292934	city	5	1	1.102102	1.102102	0	1	0	0	CorrectCommission	0.168102	0.919770	0	0	1.052941e+01
452.030945	1.319543	city	2	1	1.590937	1.590937	0	1	0	0	CorrectCommission	2.000365	0.947539	0	0	1.055882e+01
453.363770	1.346086	city	8	1	1.380582	1.380582	0	1	0	0	CorrectCommission	1.211906	0.970372	0	0	1.058824e+01
454.696686	1.319737	city	10	1	1.338450	1.338450	0	1	0	0	CorrectCommission	1.053989	0.988457	0	0	1.061765e+01
456.049652	1.386225	city	9	1	1.256974	1.256974	0	1	0	0	CorrectCommission	0.748597	1.002332	0	0	1.064706e+01
457.389130	1.292697	city	7	1	1.311507	1.311507	0	1	0	0	CorrectCommission	0.953000	1.012758	0	0	1.067647e+01
458.748657	1.426347	city	10	1	1.020326	1.020326	0	1	0	0	CorrectCommission	0.138410	1.020586	0	0	1.070588e+01
460.101624	1.279620	city	7	1	1.530389	1.530389	0	1	0	0	CorrectCommission	1.773418	1.026643	0	0	1.073529e+01
461.387878	1.292878	city	3	1	1.579309	1.579309	0	1	0	0	CorrectCommission	1.956780	1.031537	0	0	1.076471e+01
462.687378	1.306099	city	9	1	1.340176	1.340176	0	1	0	0	CorrectCommission	1.060455	1.035563	0	0	1.079412e+01
464.026855	1.372879	city	8	1	1.115977	1.115977	0	1	0	0	CorrectCommission	0.220110	1.038633	0	0	1.082353e+01
465.393066	1.359529	city	1	1	1.214999	1.214999	0	1	0	0	CorrectCommission	0.591268	1.040210	0	0	1.085294e+01
466.746033	1.346388	city	8	1	0.844352	0.844352	0	1	0	0	CorrectCommission	0.798000	1.039302	0	0	1.088235e+01
468.078918	1.319402	city	4	1	0.764289	0.764289	0	1	0	0	CorrectCommission	1.098095	1.034612	0	0	1.091176e+01
469.411804	1.346388	city	1	1	0.590101	0.590101	0	1	0	0	CorrectCommission	1.750989	1.024698	0	0	1.094118e+01
470.731384	1.292747	city	2	1	0.839857	0.839857	0	1	0	0	CorrectCommission	0.814850	1.008220	0	0	1.097059e+01
475.269806	7.784115	break	0	1	0.627075	0.627075	0	0	0	0	ThoughtProbe	1.612403	0.984207	0	11	11
479.808411	1.293058	city	2	1	1.356466	1.356466	0	1	0	0	CorrectCommission	1.121516	0.952210	0	0	1.087500e+01
481.121277	1.332728	city	1	1	1.510583	1.510583	0	1	0	0	CorrectCommission	1.699180	0.912474	0	0	1.075000e+01
482.474091	1.372846	city	4	1	1.314381	1.314381	0	1	0	0	CorrectCommission	0.963771	0.865931	0	0	1.062500e+01
483.813721	1.306440	city	7	1	0.982868	0.982868	0	1	0	0	CorrectCommission	0.278811	0.814132	0	0	1.050000e+01
485.120026	1.306162	city	3	1	0.865925	0.865925	0	1	0	0	CorrectCommission	0.717139	0.759050	0	0	1.037500e+01
486.439514	1.332812	mountain	3	1	0.814345	0.814345	0	0	1	0	CommissionError	0.910473	0.702876	1	0	1.025000e+01
487.745789	1.279759	mountain	9	0	0.000000	1.078893	1	0	0	0	CorrectOmission	0.081112	0.647728	1	0	1.012500e+01
489.052094	1.332863	city	2	1	1.276084	1.276084	0	1	0	0	CorrectCommission	0.820226	0.595519	1	0	10
490.384949	1.332837	city	10	1	1.022431	1.022431	0	1	0	0	CorrectCommission	0.130522	0.547792	1	0	9.875000e+00
491.697876	1.293002	city	8	1	1.070824	1.070824	0	1	0	0	CorrectCommission	0.050866	0.505752	1	0	9.750000e+00
493.024170	1.359568	city	3	1	1.302745	1.302745	0	1	0	0	CorrectCommission	0.920158	0.470227	1	0	9.625000e+00
494.363647	1.319397	city	7	1	0.946835	0.946835	0	1	0	0	CorrectCommission	0.413872	0.441772	1	0	9.500000e+00
495.689880	1.333076	city	2	1	0.974422	0.974422	0	1	0	0	CorrectCommission	0.310470	0.420755	1	0	9.375000e+00
497.016113	1.319405	city	3	1	0.954702	0.954702	0	1	0	0	CorrectCommission	0.384385	0.407411	1	0	9.250000e+00
498.355591	1.359518	city	4	1	1.131899	1.131899	0	1	0	0	CorrectCommission	0.279789	0.401869	1	0	9.125000e+00
499.688446	1.306227	city	3	1	1.095493	1.095493	0	1	0	0	CorrectCommission	0.143332	0.404127	1	0	9
500.988098	1.293066	city	5	1	1.017103	1.017103	0	1	0	0	CorrectCommission	0.150490	0.413944	1	0	8.875000e+00
502.287689	1.306100	city	2	1	0.894292	0.894292	0	1	0	0	CorrectCommission	0.610815	0.430757	1	0	8.750000e+00
503.600586	1.319699	city	3	1	0.954120	0.954120	0	1	0	0	CorrectCommission	0.386566	0.453572	1	0	8.625000e+00
504.933502	1.346145	city	5	1	0.950484	0.950484	0	1	0	0	CorrectCommission	0.400193	0.480903	1	0	8.500000e+00
506.299744	1.386309	city	9	1	1.082003	1.082003	0	1	0	0	CorrectCommission	0.092768	0.510832	1	0	8.375000e+00
507.659332	1.332872	city	4	1	1.057529	1.057529	0	1	0	0	CorrectCommission	0.001036	0.541107	1	0	8.250000e+00
508.985535	1.319575	city	8	1	0.969584	0.969584	0	1	0	0	CorrectCommission	0.328602	0.569362	1	0	8.125000e+00
510.345001	1.399322	city	4	1	1.164849	1.164849	0	1	0	0	CorrectCommission	0.403295	0.593404	1	0	8
511.684540	1.279763	mountain	9	1	1.745863	1.745863	0	0	1	0	CommissionError	2.581059	0.611575	1	0	7.875000e+00
512.997559	1.346248	city	9	0	0.000000	1.542059	0	0	0	1	OmissionError	1.817158	0.622955	1	0	7.750000e+00
514.343750	1.346210	city	4	1	1.117356	1.117356	0	1	0	0	CorrectCommission	0.225280	0.627630	1	0	7.625000e+00
515.656677	1.279559	city	7	1	1.035673	1.035673	0	1	0	0	CorrectCommission	0.080887	0.626682	1	0	7.500000e+00
516.969543	1.346264	city	5	1	0.871904	0.871904	0	1	0	0	CorrectCommission	0.694730	0.622048	1	0	7.375000e+00
518.335754	1.386118	city	3	1	0.907179	0.907179	0	1	0	0	CorrectCommission	0.562509	0.616251	1	0	7.250000e+00
519.695251	1.332817	city	7	1	1.143038	1.143038	0	1	0	0	CorrectCommission	0.321540	0.612129	1	0	7.125000e+00
521.034851	1.346378	city	9	1	0.987119	0.987119	0	1	0	0	CorrectCommission	0.262879	0.612466	1	0	7
522.367798	1.319560	city	1	1	1.197425	1.197425	0	1	0	0	CorrectCommission	0.525394	0.619677	1	0	6.875000e+00
523.681641	1.308106	city	10	1	1.244265	1.244265	0	1	0	0	CorrectCommission	0.700963	0.635571	1	0	6.750000e+00
525.001099	1.330878	city	8	1	1.207415	1.207415	0	1	0	0	CorrectCommission	0.562840	0.661166	1	0	6.625000e+00
526.319824	1.306486	city	4	1	1.042653	1.042653	0	1	0	0	CorrectCommission	0.054723	0.696616	1	0	6.500000e+00
527.652771	1.359487	city	9	1	0.856064	0.856064	0	1	0	0	CorrectCommission	0.754099	0.741247	1	0	6.375000e+00
529.012268	1.359535	city	3	1	1.272396	1.272396	0	1	0	0	CorrectCommission	0.806403	0.793553	0	0	6.250000e+00
530.365173	1.346226	city	4	1	1.043152	1.043152	0	1	0	0	CorrectCommission	0.052855	0.851383	0	0	6.125000e+00
531.038269	8.370496	break	0	0	0.000000	0.813907	0	0	0	0	ThoughtProbe	0.912114	0.912114	0	6	6
