onset	duration	trial_type	image_type	Press	ReactionTime	ReactionTime_Interpolated	CorrectOmission	CorrectCommission	CommissionError	OmissionError	response_type	nonsmoothVarianceTimeCourse	VarianceTimeCourse	In_the_Zone	ThoughtProbe	ThoughtProbe_Interpolated
0.679647	1.332891	city	8	1	1.215627	1.215627	0	1	0	0	CorrectCommission	0.168123	0.168123	1	0	38
1.985939	1.279694	city	4	1	1.500212	1.500212	0	1	0	0	CorrectCommission	1.173223	0.211129	1	0	38
3.265574	1.279576	city	7	1	1.341474	1.341474	0	1	0	0	CorrectCommission	0.612590	0.251464	1	0	38
4.545146	1.279567	mountain	10	1	1.445393	1.445393	0	0	1	0	CommissionError	0.979614	0.286869	1	0	38
5.824652	1.279446	city	2	1	1.047941	1.047941	0	1	0	0	CorrectCommission	0.424110	0.315759	1	0	38
7.110911	1.293074	city	6	1	1.035411	1.035411	0	1	0	0	CorrectCommission	0.468364	0.337408	1	0	38
8.397155	1.279413	city	10	1	1.020683	1.020683	0	1	0	0	CorrectCommission	0.520382	0.351957	1	0	38
9.676735	1.279747	city	2	1	1.074133	1.074133	0	1	0	0	CorrectCommission	0.331606	0.360309	1	0	38
10.956398	1.279580	city	4	1	1.233854	1.233854	0	1	0	0	CorrectCommission	0.232498	0.363906	1	0	38
12.235981	1.279587	city	7	1	1.174810	1.174810	0	1	0	0	CorrectCommission	0.023968	0.364440	1	0	38
13.515473	1.279397	city	5	1	1.231219	1.231219	0	1	0	0	CorrectCommission	0.223191	0.363587	1	0	38
14.795040	1.279738	city	2	1	0.977537	0.977537	0	1	0	0	CorrectCommission	0.672762	0.362756	1	0	38
16.074686	1.279555	mountain	2	0	0.000000	1.025802	1	0	0	0	CorrectOmission	0.502302	0.362917	1	0	38
17.354263	1.279597	city	1	1	1.177585	1.177585	0	1	0	0	CorrectCommission	0.033767	0.364542	1	0	38
18.633781	1.279439	city	3	1	1.234461	1.234461	0	1	0	0	CorrectCommission	0.234642	0.367616	1	0	38
19.913355	1.279710	city	5	1	1.236370	1.236370	0	1	0	0	CorrectCommission	0.241386	0.371666	1	0	38
21.192961	1.279499	city	2	1	1.180880	1.180880	0	1	0	0	CorrectCommission	0.045406	0.375927	1	0	38
22.472542	1.279664	mountain	4	0	0.000000	1.346545	1	0	0	0	CorrectOmission	0.630501	0.379507	1	0	38
23.752176	1.279605	city	8	1	1.473742	1.473742	0	1	0	0	CorrectCommission	1.079735	0.381528	1	0	38
25.031761	1.279566	city	6	1	1.302849	1.302849	0	1	0	0	CorrectCommission	0.476175	0.381313	1	0	38
26.311329	1.279570	city	2	1	1.087422	1.087422	0	1	0	0	CorrectCommission	0.284672	0.378497	1	0	38
27.590902	1.279577	city	9	1	1.195058	1.195058	0	1	0	0	CorrectCommission	0.095480	0.373103	1	0	38
28.870489	1.279595	city	1	1	1.020657	1.020657	0	1	0	0	CorrectCommission	0.520473	0.365500	1	0	38
30.150078	1.279582	city	9	1	0.932382	0.932382	0	1	0	0	CorrectCommission	0.832244	0.356400	1	0	38
31.429659	1.279580	city	7	1	1.183214	1.183214	0	1	0	0	CorrectCommission	0.053647	0.346810	1	0	38
32.709240	1.279585	city	5	1	1.230352	1.230352	0	1	0	0	CorrectCommission	0.220129	0.337962	1	0	38
33.988823	1.279581	city	2	1	1.123573	1.123573	0	1	0	0	CorrectCommission	0.156994	0.331180	1	0	38
35.268318	1.279404	city	10	1	1.121938	1.121938	0	1	0	0	CorrectCommission	0.162768	0.327814	1	0	38
36.547894	1.279748	city	2	1	1.034500	1.034500	0	1	0	0	CorrectCommission	0.471583	0.329118	1	0	38
37.827538	1.279543	city	8	1	1.021442	1.021442	0	1	0	0	CorrectCommission	0.517699	0.336142	1	0	38
39.113770	1.292921	city	5	1	1.137206	1.137206	0	1	0	0	CorrectCommission	0.108843	0.349608	1	0	38
40.400021	1.279581	city	7	1	1.184011	1.184011	0	1	0	0	CorrectCommission	0.056462	0.369820	1	0	38
41.679611	1.279600	city	9	1	1.177612	1.177612	0	1	0	0	CorrectCommission	0.033863	0.396527	1	0	38
42.965881	1.292941	mountain	1	1	0.924069	0.924069	0	0	1	0	CommissionError	0.861601	0.428871	1	0	38
44.258766	1.292825	city	4	1	1.166505	1.166505	0	1	0	0	CorrectCommission	0.005366	0.465373	1	0	38
45.544983	1.279614	city	6	1	1.185347	1.185347	0	1	0	0	CorrectCommission	0.061181	0.504057	1	0	38
46.824501	1.279416	city	2	1	1.039391	1.039391	0	1	0	0	CorrectCommission	0.454307	0.542544	1	0	38
48.110676	1.292933	city	5	1	1.026914	1.026914	0	1	0	0	CorrectCommission	0.498372	0.578330	1	0	38
49.403591	1.292905	city	3	1	0.903496	0.903496	0	1	0	0	CorrectCommission	0.934262	0.609113	1	0	38
50.689907	1.279723	city	6	1	0.822941	0.822941	0	1	0	0	CorrectCommission	1.218765	0.633085	1	0	38
51.969563	1.279589	city	4	1	0.558057	0.558057	0	1	0	0	CorrectCommission	2.154284	0.649194	1	0	38
53.249069	1.279426	city	6	1	1.093322	1.093322	0	1	0	0	CorrectCommission	0.263833	0.657327	1	0	38
54.528625	1.279689	city	3	1	0.942949	0.942949	0	1	0	0	CorrectCommission	0.794922	0.658408	1	0	38
55.808285	1.279629	city	10	1	1.070332	1.070332	0	1	0	0	CorrectCommission	0.345030	0.654206	1	0	38
57.087807	1.279408	city	8	1	0.963788	0.963788	0	1	0	0	CorrectCommission	0.721322	0.647203	1	0	38
57.727509	10.623292	break	0	0	0.000000	1.134700	0	0	0	0	ThoughtProbe	0.117693	0.640288	1	38	38
68.997192	1.292786	mountain	2	0	0.000000	1.344588	1	0	0	0	CorrectOmission	0.623588	0.636482	1	0	3.865000e+01
70.283432	1.279694	city	7	1	1.354968	1.354968	0	1	0	0	CorrectCommission	0.660248	0.638617	1	0	3.930000e+01
71.563095	1.279632	city	2	1	0.927359	0.927359	0	1	0	0	CorrectCommission	0.849983	0.649077	1	0	3.995000e+01
72.849281	1.292734	city	8	1	1.134308	1.134308	0	1	0	0	CorrectCommission	0.119079	0.669594	1	0	4.060000e+01
74.155518	1.319742	city	5	1	1.039403	1.039403	0	1	0	0	CorrectCommission	0.454265	0.701084	1	0	4.125000e+01
75.455177	1.279583	city	3	1	1.227986	1.227986	0	1	0	0	CorrectCommission	0.211774	0.743507	1	0	4.190000e+01
76.734756	1.279565	mountain	1	0	0.000000	1.013257	1	0	0	0	CorrectOmission	0.546607	0.795866	0	0	4.255000e+01
78.014267	1.279464	city	6	1	0.928153	0.928153	0	1	0	0	CorrectCommission	0.847178	0.856215	0	0	4.320000e+01
79.293777	1.279553	city	8	1	1.505611	1.505611	0	1	0	0	CorrectCommission	1.192291	0.921756	0	0	4.385000e+01
80.573334	1.279557	city	10	1	0.996179	0.996179	0	1	0	0	CorrectCommission	0.606923	0.989010	0	0	4.450000e+01
81.852974	1.279727	city	3	1	0.967004	0.967004	0	1	0	0	CorrectCommission	0.709963	1.054111	0	0	4.515000e+01
83.139290	1.292908	city	6	1	0.786184	0.786184	0	1	0	0	CorrectCommission	1.348586	1.113041	0	0	4.580000e+01
84.425552	1.279609	city	1	1	0.613236	0.613236	0	1	0	0	CorrectCommission	1.959404	1.161973	0	0	4.645000e+01
85.705055	1.279394	city	2	1	0.754403	0.754403	0	1	0	0	CorrectCommission	1.460828	1.197609	0	0	4.710000e+01
86.984627	1.279751	city	10	1	0.676259	0.676259	0	1	0	0	CorrectCommission	1.736819	1.217494	0	0	4.775000e+01
88.264290	1.279581	city	1	1	0.652154	0.652154	0	1	0	0	CorrectCommission	1.821952	1.220197	0	0	4.840000e+01
89.543869	1.279582	city	8	1	0.809633	0.809633	0	1	0	0	CorrectCommission	1.265766	1.205440	0	0	4.905000e+01
90.823387	1.279451	city	9	1	0.758650	0.758650	0	1	0	0	CorrectCommission	1.445830	1.174158	0	0	4.970000e+01
92.102966	1.279703	city	3	1	1.679831	1.679831	0	1	0	0	CorrectCommission	1.807603	1.128324	0	0	5.035000e+01
93.382607	1.279578	city	2	0	0.000000	1.335493	0	0	0	1	OmissionError	0.591467	1.070771	0	0	51
94.662178	1.279563	city	6	1	0.756324	0.756324	0	1	0	0	CorrectCommission	1.454045	1.004925	0	0	5.165000e+01
95.941757	1.279594	city	7	1	0.973014	0.973014	0	1	0	0	CorrectCommission	0.688738	0.934442	0	0	5.230000e+01
97.221336	1.279563	city	4	1	0.875242	0.875242	0	1	0	0	CorrectCommission	1.034051	0.862898	0	0	5.295000e+01
98.500832	1.279435	city	2	1	0.966045	0.966045	0	1	0	0	CorrectCommission	0.713350	0.793477	0	0	5.360000e+01
99.780296	1.279487	city	5	1	1.132510	1.132510	0	1	0	0	CorrectCommission	0.125430	0.728749	1	0	5.425000e+01
101.059959	1.279845	city	3	1	1.132042	1.132042	0	1	0	0	CorrectCommission	0.127082	0.670557	1	0	5.490000e+01
102.339645	1.279531	city	8	1	1.038731	1.038731	0	1	0	0	CorrectCommission	0.456638	0.619959	1	0	5.555000e+01
103.619217	1.279609	city	7	1	1.087669	1.087669	0	1	0	0	CorrectCommission	0.283798	0.577320	1	0	5.620000e+01
104.898758	1.279473	city	8	1	1.287200	1.287200	0	1	0	0	CorrectCommission	0.420907	0.542478	1	0	5.685000e+01
106.178345	1.279693	city	1	1	1.518848	1.518848	0	1	0	0	CorrectCommission	1.239041	0.514930	1	0	5.750000e+01
107.471306	1.306239	mountain	7	0	0.000000	1.312876	1	0	0	0	CorrectOmission	0.511587	0.494025	1	0	5.815000e+01
108.764130	1.279409	city	9	1	1.039852	1.039852	0	1	0	0	CorrectCommission	0.452679	0.479159	1	0	5.880000e+01
110.043709	1.279746	city	7	1	1.070346	1.070346	0	1	0	0	CorrectCommission	0.344981	0.469807	1	0	5.945000e+01
111.323364	1.279554	city	3	1	1.294393	1.294393	0	1	0	0	CorrectCommission	0.446310	0.465525	1	0	6.010000e+01
112.602867	1.279465	city	4	1	1.132037	1.132037	0	1	0	0	CorrectCommission	0.127098	0.465907	1	0	6.075000e+01
113.889046	1.292888	city	2	1	1.248601	1.248601	0	1	0	0	CorrectCommission	0.284581	0.470556	1	0	6.140000e+01
115.175262	1.279551	city	6	1	1.122372	1.122372	0	1	0	0	CorrectCommission	0.161233	0.479012	1	0	6.205000e+01
116.454933	1.279787	city	7	1	1.101169	1.101169	0	1	0	0	CorrectCommission	0.236118	0.490781	1	0	6.270000e+01
117.734604	1.279547	city	2	1	1.026046	1.026046	0	1	0	0	CorrectCommission	0.501438	0.505398	1	0	6.335000e+01
118.374374	9.783397	break	0	0	0.000000	1.360646	0	0	0	0	ThoughtProbe	0.680304	0.522518	1	64	64
128.797577	1.279624	city	8	1	1.612182	1.612182	0	1	0	0	CorrectCommission	1.568680	0.542044	1	0	6.335294e+01
130.077194	1.279594	city	3	1	1.287867	1.287867	0	1	0	0	CorrectCommission	0.423263	0.564199	1	0	6.270588e+01
131.356735	1.279499	city	5	1	1.359855	1.359855	0	1	0	0	CorrectCommission	0.677511	0.589527	1	0	6.205882e+01
132.636276	1.279560	city	10	1	1.187020	1.187020	0	1	0	0	CorrectCommission	0.067089	0.618759	1	0	6.141176e+01
133.922562	1.293023	mountain	10	1	1.081074	1.081074	0	0	1	0	CommissionError	0.307091	0.652654	1	0	6.076471e+01
135.208832	1.279528	city	5	1	1.353554	1.353554	0	1	0	0	CorrectCommission	0.655254	0.691737	1	0	6.011765e+01
136.495071	1.292949	city	4	1	1.360337	1.360337	0	1	0	0	CorrectCommission	0.679213	0.736048	1	0	5.947059e+01
137.781342	1.279586	city	7	1	1.283966	1.283966	0	1	0	0	CorrectCommission	0.409483	0.784953	0	0	5.882353e+01
139.060913	1.279547	city	1	1	1.034357	1.034357	0	1	0	0	CorrectCommission	0.472087	0.837022	0	0	5.817647e+01
140.340485	1.279599	city	8	1	0.864236	0.864236	0	1	0	0	CorrectCommission	1.072922	0.890037	0	0	5.752941e+01
141.626724	1.292894	city	9	1	0.827815	0.827815	0	1	0	0	CorrectCommission	1.201553	0.941129	0	0	5.688235e+01
142.919647	1.292942	city	10	1	0.783806	0.783806	0	1	0	0	CorrectCommission	1.356985	0.987062	0	0	5.623529e+01
144.205811	1.279392	city	4	1	1.017209	1.017209	0	1	0	0	CorrectCommission	0.532648	1.024622	0	0	5.558824e+01
145.492020	1.293016	city	8	1	0.932270	0.932270	0	1	0	0	CorrectCommission	0.832636	1.051059	0	0	5.494118e+01
146.791672	1.306290	city	2	1	0.732830	0.732830	0	1	0	0	CorrectCommission	1.537022	1.064514	0	0	5.429412e+01
148.084595	1.279569	city	7	1	0.558647	0.558647	0	1	0	0	CorrectCommission	2.152200	1.064422	0	0	5.364706e+01
149.370834	1.292912	city	3	1	0.501701	0.501701	0	1	0	0	CorrectCommission	2.353322	1.051726	0	0	53
150.657013	1.279449	mountain	7	1	0.705525	0.705525	0	0	1	0	CommissionError	1.633458	1.028929	0	0	5.235294e+01
151.936554	1.279632	city	9	1	0.974465	0.974465	0	1	0	0	CorrectCommission	0.683614	0.999884	0	0	5.170588e+01
153.216217	1.279665	city	4	1	0.975094	0.975094	0	1	0	0	CorrectCommission	0.681392	0.969310	0	0	5.105882e+01
154.495758	1.279423	city	5	1	0.987656	0.987656	0	1	0	0	CorrectCommission	0.637025	0.942200	0	0	5.041176e+01
155.775345	1.279745	city	2	1	1.187389	1.187389	0	1	0	0	CorrectCommission	0.068395	0.923180	0	0	4.976471e+01
157.061661	1.292895	city	5	1	1.167007	1.167007	0	1	0	0	CorrectCommission	0.003592	0.915888	0	0	4.911765e+01
158.361176	1.306144	city	1	1	1.104465	1.104465	0	1	0	0	CorrectCommission	0.224479	0.922551	0	0	4.847059e+01
159.660751	1.293012	city	10	1	0.846325	0.846325	0	1	0	0	CorrectCommission	1.136179	0.943719	0	0	4.782353e+01
160.947052	1.279585	city	7	1	0.982729	0.982729	0	1	0	0	CorrectCommission	0.654425	0.978296	0	0	4.717647e+01
162.226639	1.279578	city	8	1	0.974038	0.974038	0	1	0	0	CorrectCommission	0.685120	1.023783	0	0	4.652941e+01
163.512817	1.292781	city	2	1	0.860667	0.860667	0	1	0	0	CorrectCommission	1.085525	1.076621	0	0	4.588235e+01
164.805634	1.292874	city	7	1	0.779880	0.779880	0	1	0	0	CorrectCommission	1.370849	1.132667	0	0	4.523529e+01
166.091919	1.279673	city	2	1	0.708616	0.708616	0	1	0	0	CorrectCommission	1.622539	1.187639	0	0	4.458824e+01
167.371567	1.279635	city	9	1	0.603452	0.603452	0	1	0	0	CorrectCommission	1.993959	1.237515	0	0	4.394118e+01
168.651031	1.279297	city	6	1	0.604836	0.604836	0	1	0	0	CorrectCommission	1.989070	1.278800	0	0	4.329412e+01
169.930542	1.279709	city	9	1	0.930097	0.930097	0	1	0	0	CorrectCommission	0.840312	1.308729	0	0	4.264706e+01
170.570389	9.663607	break	0	0	0.000000	1.381806	0	0	0	0	ThoughtProbe	0.755037	1.325363	0	42	42
180.887146	1.306285	city	5	1	1.655588	1.655588	0	1	0	0	CorrectCommission	1.721979	1.327622	0	0	4.202941e+01
182.179993	1.279410	city	6	1	1.447065	1.447065	0	1	0	0	CorrectCommission	0.985518	1.315269	0	0	4.205882e+01
183.459549	1.279719	mountain	7	1	1.676209	1.676209	0	0	1	0	CommissionError	1.794810	1.289023	0	0	4.208824e+01
184.739182	1.279550	city	6	1	1.987900	1.987900	0	1	0	0	CorrectCommission	2.895641	1.250504	0	0	4.211765e+01
186.018768	1.279621	city	10	1	1.509990	1.509990	0	1	0	0	CorrectCommission	1.207758	1.202236	0	0	4.214706e+01
187.298386	1.279591	city	7	1	1.560553	1.560553	0	1	0	0	CorrectCommission	1.386336	1.147605	0	0	4.217647e+01
188.577896	1.279442	city	2	1	1.511534	1.511534	0	1	0	0	CorrectCommission	1.213210	1.090553	0	0	4.220588e+01
189.857483	1.279727	city	3	1	1.291458	1.291458	0	1	0	0	CorrectCommission	0.435943	1.035256	0	0	4.223529e+01
191.137131	1.279567	city	9	1	1.354951	1.354951	0	1	0	0	CorrectCommission	0.660191	0.985747	0	0	4.226471e+01
192.416687	1.279551	city	4	1	1.190156	1.190156	0	1	0	0	CorrectCommission	0.078165	0.945446	0	0	4.229412e+01
193.696259	1.279576	city	10	1	1.032295	1.032295	0	1	0	0	CorrectCommission	0.479370	0.916813	0	0	4.232353e+01
194.989197	1.306299	city	6	1	0.975540	0.975540	0	1	0	0	CorrectCommission	0.679815	0.901040	0	0	4.235294e+01
196.295441	1.306198	city	7	1	0.984175	0.984175	0	1	0	0	CorrectCommission	0.649321	0.897962	0	0	4.238235e+01
197.588318	1.279561	city	5	1	0.826396	0.826396	0	1	0	0	CorrectCommission	1.206564	0.906112	0	0	4.241176e+01
198.874542	1.292890	city	3	1	0.998777	0.998777	0	1	0	0	CorrectCommission	0.597746	0.922907	0	0	4.244118e+01
200.174042	1.306096	city	7	1	1.003280	1.003280	0	1	0	0	CorrectCommission	0.581843	0.944982	0	0	4.247059e+01
201.466949	1.279737	city	9	1	0.976833	0.976833	0	1	0	0	CorrectCommission	0.675248	0.968587	0	0	4.250000e+01
202.746613	1.279598	city	3	1	0.804752	0.804752	0	1	0	0	CorrectCommission	1.283008	0.990066	0	0	4.252941e+01
204.032867	1.292902	city	10	1	0.708363	0.708363	0	1	0	0	CorrectCommission	1.623434	1.006228	0	0	4.255882e+01
205.332443	1.306240	city	2	1	0.516227	0.516227	0	1	0	0	CorrectCommission	2.302021	1.014735	0	0	4.258824e+01
206.645248	1.319390	city	5	1	0.919943	0.919943	0	1	0	0	CorrectCommission	0.876175	1.014328	0	0	4.261765e+01
207.944824	1.279760	mountain	1	1	0.870506	0.870506	0	0	1	0	CommissionError	1.050774	1.004961	0	0	4.264706e+01
209.244492	1.319565	city	10	1	0.923603	0.923603	0	1	0	0	CorrectCommission	0.863247	0.987615	0	0	4.267647e+01
210.544067	1.279579	city	5	1	0.866181	0.866181	0	1	0	0	CorrectCommission	1.066053	0.964199	0	0	4.270588e+01
211.823639	1.279572	city	4	1	0.867920	0.867920	0	1	0	0	CorrectCommission	1.059909	0.937219	0	0	4.273529e+01
213.103165	1.279485	city	5	1	0.867940	0.867940	0	1	0	0	CorrectCommission	1.059840	0.909438	0	0	4.276471e+01
214.389328	1.292830	city	6	1	1.109384	1.109384	0	1	0	0	CorrectCommission	0.207104	0.883557	0	0	4.279412e+01
215.675537	1.279590	city	7	1	0.928748	0.928748	0	1	0	0	CorrectCommission	0.845077	0.861884	0	0	4.282353e+01
216.955200	1.279729	city	2	1	0.911273	0.911273	0	1	0	0	CorrectCommission	0.906795	0.846082	0	0	4.285294e+01
218.234863	1.279605	city	6	1	1.306046	1.306046	0	1	0	0	CorrectCommission	0.487466	0.837061	0	0	4.288235e+01
219.527786	1.306230	city	5	1	1.224064	1.224064	0	1	0	0	CorrectCommission	0.197923	0.834899	0	0	4.291176e+01
220.820679	1.279558	city	8	1	0.964252	0.964252	0	1	0	0	CorrectCommission	0.719684	0.838922	0	0	4.294118e+01
222.120239	1.319565	city	6	1	0.874517	0.874517	0	1	0	0	CorrectCommission	1.036610	0.847829	0	0	4.297059e+01
226.651993	7.743959	break	0	1	0.790285	0.790285	0	0	0	0	ThoughtProbe	1.334103	0.859950	0	43	43
231.183853	1.319737	city	10	1	1.043582	1.043582	0	1	0	0	CorrectCommission	0.439504	0.873498	0	0	4.287500e+01
232.483429	1.279429	mountain	9	1	1.309108	1.309108	0	0	1	0	CommissionError	0.498280	0.886869	0	0	4.275000e+01
233.776291	1.306293	city	6	1	1.687111	1.687111	0	1	0	0	CorrectCommission	1.833312	0.898817	0	0	4.262500e+01
235.069214	1.279544	mountain	8	1	1.461512	1.461512	0	0	1	0	CommissionError	1.036542	0.908608	0	0	4.250000e+01
236.348831	1.279712	city	10	1	1.454454	1.454454	0	1	0	0	CorrectCommission	1.011613	0.916148	0	0	4.237500e+01
237.628494	1.279611	city	7	1	1.454740	1.454740	0	1	0	0	CorrectCommission	1.012625	0.921894	0	0	4.225000e+01
238.914749	1.292876	city	9	1	1.590191	1.590191	0	1	0	0	CorrectCommission	1.491011	0.926749	0	0	4.212500e+01
240.214310	1.306244	city	7	1	1.264942	1.264942	0	1	0	0	CorrectCommission	0.342296	0.931865	0	0	42
241.507187	1.279538	city	8	1	1.243119	1.243119	0	1	0	0	CorrectCommission	0.265220	0.938493	0	0	4.187500e+01
242.786743	1.279569	city	9	1	1.017059	1.017059	0	1	0	0	CorrectCommission	0.533181	0.947701	0	0	4.175000e+01
244.066345	1.279633	city	8	1	0.767323	0.767323	0	1	0	0	CorrectCommission	1.415199	0.960240	0	0	4.162500e+01
245.345901	1.279482	city	4	1	1.425367	1.425367	0	1	0	0	CorrectCommission	0.908885	0.976419	0	0	4.150000e+01
246.645477	1.319653	city	10	1	1.022023	1.022023	0	1	0	0	CorrectCommission	0.515648	0.996065	0	0	4.137500e+01
247.945068	1.279543	city	8	1	0.778983	0.778983	0	1	0	0	CorrectCommission	1.374016	1.018501	0	0	4.125000e+01
249.231308	1.292928	city	9	1	1.702619	1.702619	0	1	0	0	CorrectCommission	1.888087	1.042551	0	0	4.112500e+01
250.524231	1.292913	city	1	1	1.467221	1.467221	0	1	0	0	CorrectCommission	1.056704	1.066568	0	0	41
251.810486	1.279592	city	5	1	1.284440	1.284440	0	1	0	0	CorrectCommission	0.411159	1.088532	0	0	4.087500e+01
253.090042	1.279544	city	10	1	1.029960	1.029960	0	1	0	0	CorrectCommission	0.487617	1.106133	0	0	4.075000e+01
254.376282	1.292910	city	5	1	0.927822	0.927822	0	1	0	0	CorrectCommission	0.848347	1.116940	0	0	4.062500e+01
255.675873	1.306292	city	6	1	0.874551	0.874551	0	1	0	0	CorrectCommission	1.036488	1.118637	0	0	4.050000e+01
256.968781	1.279518	city	10	1	0.504072	0.504072	0	1	0	0	CorrectCommission	2.344951	1.109331	0	0	4.037500e+01
258.248352	1.279633	city	2	1	1.725589	1.725589	0	1	0	0	CorrectCommission	1.969210	1.087806	0	0	4.025000e+01
259.527954	1.279543	city	7	1	1.636453	1.636453	0	1	0	0	CorrectCommission	1.654400	1.053815	0	0	4.012500e+01
260.814178	1.292911	city	2	1	1.576359	1.576359	0	1	0	0	CorrectCommission	1.442158	1.008146	0	0	40
262.100433	1.279612	city	8	1	1.480120	1.480120	0	1	0	0	CorrectCommission	1.102260	0.952554	0	0	3.987500e+01
263.386688	1.292875	city	5	1	1.349454	1.349454	0	1	0	0	CorrectCommission	0.640776	0.889576	0	0	3.975000e+01
264.672913	1.279602	city	3	1	1.373207	1.373207	0	1	0	0	CorrectCommission	0.724667	0.822207	0	0	3.962500e+01
265.965820	1.306229	city	5	1	1.162745	1.162745	0	1	0	0	CorrectCommission	0.018646	0.753552	0	0	3.950000e+01
267.272034	1.306209	city	9	1	1.158352	1.158352	0	1	0	0	CorrectCommission	0.034159	0.686528	1	0	3.937500e+01
268.564880	1.279440	city	8	1	1.021821	1.021821	0	1	0	0	CorrectCommission	0.516363	0.623660	1	0	3.925000e+01
269.851135	1.293093	mountain	7	1	0.812212	0.812212	0	0	1	0	CommissionError	1.256660	0.566990	1	0	3.912500e+01
271.137482	1.279564	city	2	1	1.141241	1.141241	0	1	0	0	CorrectCommission	0.094592	0.518124	1	0	39
272.417023	1.279540	city	1	1	1.028367	1.028367	0	1	0	0	CorrectCommission	0.493243	0.478362	1	0	3.887500e+01
273.696564	1.279570	city	9	1	0.976528	0.976528	0	1	0	0	CorrectCommission	0.676326	0.448796	1	0	3.875000e+01
274.989441	1.306171	city	10	1	1.060576	1.060576	0	1	0	0	CorrectCommission	0.379487	0.430429	1	0	3.862500e+01
276.282379	1.279689	city	4	1	1.143474	1.143474	0	1	0	0	CorrectCommission	0.086705	0.424171	1	0	3.850000e+01
277.562012	1.279574	city	6	1	1.182773	1.182773	0	1	0	0	CorrectCommission	0.052091	0.430740	1	0	3.837500e+01
278.854950	1.306289	city	9	1	1.245724	1.245724	0	1	0	0	CorrectCommission	0.274420	0.450494	1	0	3.825000e+01
280.147797	1.279397	city	1	1	1.193886	1.193886	0	1	0	0	CorrectCommission	0.091340	0.483213	1	0	3.812500e+01
280.787476	10.676468	break	0	1	1.088382	1.088382	0	0	0	0	ThoughtProbe	0.281279	0.527915	1	38	38
292.103821	1.279748	city	10	1	1.079917	1.079917	0	1	0	0	CorrectCommission	0.311178	0.582691	1	0	3.845652e+01
293.390137	1.292883	city	9	1	1.203003	1.203003	0	1	0	0	CorrectCommission	0.123538	0.644701	1	0	3.891304e+01
294.689636	1.306103	city	1	1	1.060844	1.060844	0	1	0	0	CorrectCommission	0.378539	0.710266	1	0	3.936957e+01
295.982483	1.279579	city	2	1	0.756735	0.756735	0	1	0	0	CorrectCommission	1.452592	0.775150	0	0	3.982609e+01
297.262115	1.279724	city	7	1	0.924266	0.924266	0	1	0	0	CorrectCommission	0.860907	0.834943	0	0	4.028261e+01
298.568390	1.332838	city	9	1	0.941741	0.941741	0	1	0	0	CorrectCommission	0.799187	0.885539	0	0	4.073913e+01
299.887939	1.306204	city	10	1	0.759506	0.759506	0	1	0	0	CorrectCommission	1.442806	0.923580	0	0	4.119565e+01
301.180878	1.279677	city	5	1	0.650213	0.650213	0	1	0	0	CorrectCommission	1.828809	0.946829	0	0	4.165217e+01
302.460419	1.279424	city	2	1	0.613208	0.613208	0	1	0	0	CorrectCommission	1.959503	0.954412	0	0	4.210870e+01
303.746643	1.293060	city	1	1	1.627404	1.627404	0	1	0	0	CorrectCommission	1.622439	0.946888	0	0	4.256522e+01
305.032959	1.279520	mountain	7	0	0.000000	1.536932	1	0	0	0	CorrectOmission	1.302910	0.926102	0	0	4.302174e+01
306.312500	1.279595	city	7	1	1.139060	1.139060	0	1	0	0	CorrectCommission	0.102295	0.894821	0	0	4.347826e+01
307.592041	1.279480	city	6	1	1.231057	1.231057	0	1	0	0	CorrectCommission	0.222620	0.856347	0	0	4.393478e+01
308.871643	1.279699	city	2	1	1.295027	1.295027	0	1	0	0	CorrectCommission	0.448549	0.814060	0	0	4.439130e+01
310.151215	1.279437	mountain	4	0	0.000000	1.422283	1	0	0	0	CorrectOmission	0.897993	0.771037	0	0	4.484783e+01
311.430634	1.279429	city	7	1	1.470442	1.470442	0	1	0	0	CorrectCommission	1.068081	0.729764	1	0	4.530435e+01
312.710236	1.279746	city	4	1	1.297121	1.297121	0	1	0	0	CorrectCommission	0.455944	0.692037	1	0	4.576087e+01
313.989899	1.279638	city	7	1	1.125147	1.125147	0	1	0	0	CorrectCommission	0.151435	0.658967	1	0	4.621739e+01
315.269531	1.279605	city	4	1	0.972811	0.972811	0	1	0	0	CorrectCommission	0.689455	0.631047	1	0	4.667391e+01
316.555847	1.293014	city	3	1	0.877548	0.877548	0	1	0	0	CorrectCommission	1.025906	0.608285	1	0	4.713043e+01
317.842102	1.279519	mountain	4	0	0.000000	0.970036	1	0	0	0	CorrectOmission	0.699257	0.590401	1	0	4.758696e+01
319.121674	1.279601	city	4	1	1.097637	1.097637	0	1	0	0	CorrectCommission	0.248592	0.576947	1	0	4.804348e+01
320.407867	1.292806	city	1	1	1.107716	1.107716	0	1	0	0	CorrectCommission	0.212998	0.567424	1	0	4.850000e+01
321.707458	1.306357	city	10	1	0.940318	0.940318	0	1	0	0	CorrectCommission	0.804213	0.561312	1	0	4.895652e+01
323.000336	1.279431	city	8	1	1.247133	1.247133	0	1	0	0	CorrectCommission	0.279396	0.558111	1	0	4.941304e+01
324.279907	1.279708	city	1	1	1.350190	1.350190	0	1	0	0	CorrectCommission	0.643373	0.557349	1	0	4.986957e+01
325.572906	1.306242	city	3	1	1.364171	1.364171	0	1	0	0	CorrectCommission	0.692753	0.558555	1	0	5.032609e+01
326.865784	1.279564	city	8	1	1.191635	1.191635	0	1	0	0	CorrectCommission	0.083389	0.561272	1	0	5.078261e+01
328.145355	1.279581	city	5	1	1.338182	1.338182	0	1	0	0	CorrectCommission	0.600963	0.565041	1	0	5.123913e+01
329.424957	1.279582	city	9	1	1.593275	1.593275	0	1	0	0	CorrectCommission	1.501905	0.569362	1	0	5.169565e+01
330.717834	1.306202	city	10	1	1.246700	1.246700	0	1	0	0	CorrectCommission	0.277868	0.573702	1	0	5.215217e+01
332.017395	1.292907	city	9	1	1.247746	1.247746	0	1	0	0	CorrectCommission	0.281561	0.577540	1	0	5.260870e+01
333.310303	1.292924	city	5	1	1.047176	1.047176	0	1	0	0	CorrectCommission	0.426812	0.580281	1	0	5.306522e+01
334.596527	1.279520	city	7	1	0.964179	0.964179	0	1	0	0	CorrectCommission	0.719940	0.581320	1	0	5.352174e+01
335.876068	1.279538	mountain	6	0	0.000000	1.128253	1	0	0	0	CorrectOmission	0.140465	0.580059	1	0	5.397826e+01
337.155670	1.279693	city	5	1	1.368510	1.368510	0	1	0	0	CorrectCommission	0.708079	0.575995	1	0	5.443478e+01
338.435242	1.279412	city	6	1	1.514067	1.514067	0	1	0	0	CorrectCommission	1.222155	0.568760	1	0	5.489130e+01
339.721466	1.293082	city	7	1	1.426541	1.426541	0	1	0	0	CorrectCommission	0.913032	0.558226	1	0	5.534783e+01
341.007812	1.279594	city	1	1	1.298701	1.298701	0	1	0	0	CorrectCommission	0.461527	0.544593	1	0	5.580435e+01
342.287384	1.279568	city	2	1	1.359867	1.359867	0	1	0	0	CorrectCommission	0.677552	0.528383	1	0	5.626087e+01
343.573639	1.292898	city	8	1	1.207000	1.207000	0	1	0	0	CorrectCommission	0.137654	0.510408	1	0	5.671739e+01
344.866516	1.292892	city	5	1	1.028780	1.028780	0	1	0	0	CorrectCommission	0.491785	0.491744	1	0	5.717391e+01
346.166107	1.306266	city	8	1	1.100444	1.100444	0	1	0	0	CorrectCommission	0.238679	0.473656	1	0	5.763043e+01
347.459015	1.279576	city	5	1	0.979448	0.979448	0	1	0	0	CorrectCommission	0.666015	0.457583	1	0	5.808696e+01
348.738586	1.279563	city	6	1	0.973228	0.973228	0	1	0	0	CorrectCommission	0.687980	0.445007	1	0	5.854348e+01
352.370728	5.984691	break	0	0	0.000000	1.123614	0	0	0	0	ThoughtProbe	0.156848	0.437435	1	59	59
356.002869	1.279588	city	9	1	1.254860	1.254860	0	1	0	0	CorrectCommission	0.306687	0.436360	1	0	5.840000e+01
357.282440	1.279568	mountain	7	0	0.000000	1.191222	1	0	0	0	CorrectOmission	0.081929	0.443147	1	0	5.780000e+01
358.568695	1.292926	city	5	1	1.137913	1.137913	0	1	0	0	CorrectCommission	0.106348	0.459007	1	0	5.720000e+01
359.854858	1.279424	city	1	1	1.300146	1.300146	0	1	0	0	CorrectCommission	0.466630	0.484869	1	0	5.660000e+01
361.134369	1.279583	city	5	1	1.419526	1.419526	0	1	0	0	CorrectCommission	0.888257	0.521204	1	0	56
362.433899	1.319507	city	6	1	1.287186	1.287186	0	1	0	0	CorrectCommission	0.420857	0.567903	1	0	5.540000e+01
363.746918	1.306485	mountain	4	0	0.000000	1.282654	1	0	0	0	CorrectOmission	0.404851	0.624177	1	0	5.480000e+01
365.066467	1.332643	city	7	1	1.278510	1.278510	0	1	0	0	CorrectCommission	0.390214	0.688410	1	0	5.420000e+01
366.372681	1.279802	city	2	1	1.147332	1.147332	0	1	0	0	CorrectCommission	0.073081	0.758155	0	0	5.360000e+01
367.659027	1.292861	city	10	1	1.199644	1.199644	0	1	0	0	CorrectCommission	0.111674	0.830230	0	0	53
368.945190	1.279455	city	3	1	0.978701	0.978701	0	1	0	0	CorrectCommission	0.668652	0.900968	0	0	5.240000e+01
370.224701	1.279570	city	1	1	0.648652	0.648652	0	1	0	0	CorrectCommission	1.834322	0.966580	0	0	5.180000e+01
371.504272	1.279596	city	4	1	1.657658	1.657658	0	1	0	0	CorrectCommission	1.729291	1.023628	0	0	5.120000e+01
372.783905	1.279642	city	10	1	1.715064	1.715064	0	1	0	0	CorrectCommission	1.932037	1.069537	0	0	5.060000e+01
374.070190	1.292948	city	1	1	1.515465	1.515465	0	1	0	0	CorrectCommission	1.227093	1.102968	0	0	50
375.363159	1.292968	city	7	1	1.580030	1.580030	0	1	0	0	CorrectCommission	1.455125	1.124079	0	0	4.940000e+01
376.656067	1.292860	city	5	1	1.849406	1.849406	0	1	0	0	CorrectCommission	2.406509	1.134537	0	0	4.880000e+01
377.955536	1.306113	city	8	1	1.442546	1.442546	0	1	0	0	CorrectCommission	0.969559	1.137284	0	0	4.820000e+01
379.268463	1.319715	city	1	1	1.337388	1.337388	0	1	0	0	CorrectCommission	0.598159	1.136209	0	0	4.760000e+01
380.567963	1.279295	city	2	1	1.086206	1.086206	0	1	0	0	CorrectCommission	0.288965	1.135513	0	0	47
381.847473	1.279705	city	7	1	1.127552	1.127552	0	1	0	0	CorrectCommission	0.142941	1.139127	0	0	4.640000e+01
383.147186	1.319708	city	5	1	0.673482	0.673482	0	1	0	0	CorrectCommission	1.746628	1.150183	0	0	4.580000e+01
384.453583	1.293087	mountain	2	1	0.545130	0.545130	0	0	1	0	CommissionError	2.199941	1.170517	0	0	4.520000e+01
385.753143	1.306068	city	8	1	1.139475	1.139475	0	1	0	0	CorrectCommission	0.100830	1.200453	0	0	4.460000e+01
387.045990	1.279607	city	9	1	1.080663	1.080663	0	1	0	0	CorrectCommission	0.308541	1.238773	0	0	44
388.332245	1.292906	city	5	1	0.993532	0.993532	0	1	0	0	CorrectCommission	0.616273	1.282753	0	0	4.340000e+01
389.618469	1.279535	city	4	1	0.820876	0.820876	0	1	0	0	CorrectCommission	1.226058	1.328572	0	0	4.280000e+01
390.918030	1.319613	city	2	1	1.649483	1.649483	0	1	0	0	CorrectCommission	1.700418	1.371861	0	0	4.220000e+01
392.217621	1.279560	city	9	1	1.740339	1.740339	0	1	0	0	CorrectCommission	2.021303	1.408309	0	0	4.160000e+01
393.503784	1.292764	city	10	1	1.728113	1.728113	0	1	0	0	CorrectCommission	1.978126	1.434270	0	0	41
394.796692	1.293071	city	4	1	1.812555	1.812555	0	1	0	0	CorrectCommission	2.276356	1.447280	0	0	4.040000e+01
396.089600	1.292729	city	3	1	1.954046	1.954046	0	1	0	0	CorrectCommission	2.776077	1.446320	0	0	3.980000e+01
397.375763	1.279619	city	5	1	1.805497	1.805497	0	1	0	0	CorrectCommission	2.251432	1.431827	0	0	3.920000e+01
398.682037	1.332885	city	8	0	0.000000	1.418874	0	0	0	1	OmissionError	0.885952	1.405474	0	0	3.860000e+01
399.994934	1.292941	city	6	1	1.046515	1.046515	0	1	0	0	CorrectCommission	0.429147	1.369754	0	0	38
401.287842	1.292872	city	8	1	0.940760	0.940760	0	1	0	0	CorrectCommission	0.802653	1.327405	0	0	3.740000e+01
402.594147	1.319699	city	5	1	0.898590	0.898590	0	1	0	0	CorrectCommission	0.951589	1.280911	0	0	3.680000e+01
403.893707	1.279461	city	1	1	0.709899	0.709899	0	1	0	0	CorrectCommission	1.618009	1.232143	0	0	3.620000e+01
405.179962	1.293025	city	9	1	0.727327	0.727327	0	1	0	0	CorrectCommission	1.556456	1.182136	0	0	3.560000e+01
409.531830	7.410745	break	0	0	0.000000	1.050752	0	0	0	0	ThoughtProbe	0.414182	1.131181	0	35	35
413.877014	1.279613	city	7	1	1.405438	1.405438	0	1	0	0	CorrectCommission	0.838498	1.079026	0	0	3.515217e+01
415.163208	1.292775	city	4	1	1.516646	1.516646	0	1	0	0	CorrectCommission	1.231266	1.025136	0	0	3.530435e+01
416.456085	1.292995	city	9	1	1.618404	1.618404	0	1	0	0	CorrectCommission	1.590654	0.969108	0	0	3.545652e+01
417.749146	1.293086	city	8	1	1.748455	1.748455	0	1	0	0	CorrectCommission	2.049970	0.910929	0	0	3.560870e+01
419.042145	1.292913	city	10	0	0.000000	1.495608	0	0	0	1	OmissionError	1.156963	0.851142	0	0	3.576087e+01
420.341705	1.306231	city	3	1	1.221615	1.221615	0	1	0	0	CorrectCommission	0.189271	0.790941	0	0	3.591304e+01
421.661194	1.332715	city	7	1	1.288226	1.288226	0	1	0	0	CorrectCommission	0.424530	0.731971	1	0	3.606522e+01
422.967407	1.279732	mountain	10	0	0.000000	1.241148	1	0	0	0	CorrectOmission	0.258259	0.676098	1	0	3.621739e+01
424.247009	1.279480	city	2	1	1.199608	1.199608	0	1	0	0	CorrectCommission	0.111550	0.625163	1	0	3.636957e+01
425.526611	1.279689	city	10	1	1.282836	1.282836	0	1	0	0	CorrectCommission	0.405492	0.580745	1	0	3.652174e+01
426.826233	1.319598	city	7	1	1.377253	1.377253	0	1	0	0	CorrectCommission	0.738955	0.543974	1	0	3.667391e+01
428.132477	1.292870	city	1	1	1.261863	1.261863	0	1	0	0	CorrectCommission	0.331420	0.515476	1	0	3.682609e+01
429.431976	1.306108	city	5	1	1.195791	1.195791	0	1	0	0	CorrectCommission	0.098068	0.495386	1	0	3.697826e+01
430.724884	1.279730	mountain	9	0	0.000000	0.992048	1	0	0	0	CorrectOmission	0.621514	0.483401	1	0	3.713043e+01
432.011169	1.292869	city	3	1	0.873196	0.873196	0	1	0	0	CorrectCommission	1.041277	0.478872	1	0	3.728261e+01
433.317413	1.319611	city	2	1	1.061797	1.061797	0	1	0	0	CorrectCommission	0.375172	0.480887	1	0	3.743478e+01
434.617004	1.279575	mountain	4	0	0.000000	1.197638	1	0	0	0	CorrectOmission	0.104591	0.488340	1	0	3.758696e+01
435.903168	1.292754	city	9	1	1.231251	1.231251	0	1	0	0	CorrectCommission	0.223306	0.499918	1	0	3.773913e+01
437.202698	1.306258	city	10	1	1.113171	1.113171	0	1	0	0	CorrectCommission	0.193731	0.514145	1	0	3.789130e+01
438.502258	1.292878	city	4	1	1.323120	1.323120	0	1	0	0	CorrectCommission	0.547769	0.529459	1	0	3.804348e+01
439.788574	1.279744	city	10	1	1.124690	1.124690	0	1	0	0	CorrectCommission	0.153047	0.544266	1	0	3.819565e+01
441.088226	1.319578	city	3	1	1.405881	1.405881	0	1	0	0	CorrectCommission	0.840064	0.557137	1	0	3.834783e+01
442.387787	1.279569	city	8	1	1.518449	1.518449	0	1	0	0	CorrectCommission	1.237634	0.566899	1	0	3.850000e+01
443.674011	1.292876	city	3	1	1.500870	1.500870	0	1	0	0	CorrectCommission	1.175546	0.572809	1	0	3.865217e+01
444.973602	1.306269	city	5	1	1.441253	1.441253	0	1	0	0	CorrectCommission	0.964992	0.574689	1	0	3.880435e+01
446.266418	1.279368	city	7	1	1.254839	1.254839	0	1	0	0	CorrectCommission	0.306613	0.572925	1	0	3.895652e+01
447.572571	1.332969	city	9	1	1.085716	1.085716	0	1	0	0	CorrectCommission	0.290695	0.568480	1	0	3.910870e+01
448.885590	1.293020	city	4	1	1.154725	1.154725	0	1	0	0	CorrectCommission	0.046971	0.562782	1	0	3.926087e+01
450.178528	1.292892	city	7	1	0.999819	0.999819	0	1	0	0	CorrectCommission	0.594069	0.557566	1	0	3.941304e+01
451.464783	1.279601	city	6	1	1.352518	1.352518	0	1	0	0	CorrectCommission	0.651595	0.554780	1	0	3.956522e+01
452.744324	1.279502	city	8	1	1.390369	1.390369	0	1	0	0	CorrectCommission	0.785279	0.556465	1	0	3.971739e+01
454.063812	1.359490	city	1	1	1.048544	1.048544	0	1	0	0	CorrectCommission	0.421982	0.564592	1	0	3.986957e+01
455.430054	1.372992	city	6	1	1.062658	1.062658	0	1	0	0	CorrectCommission	0.372133	0.580929	1	0	4.002174e+01
456.769714	1.306287	city	3	1	0.901350	0.901350	0	1	0	0	CorrectCommission	0.941841	0.606926	1	0	4.017391e+01
458.069305	1.292906	city	5	1	1.108229	1.108229	0	1	0	0	CorrectCommission	0.211186	0.643534	1	0	4.032609e+01
459.355560	1.279582	mountain	1	1	1.146240	1.146240	0	0	1	0	CommissionError	0.076937	0.691109	1	0	4.047826e+01
460.648438	1.306230	city	6	1	1.182718	1.182718	0	1	0	0	CorrectCommission	0.051897	0.749226	1	0	4.063043e+01
461.954651	1.306149	city	7	1	1.102379	1.102379	0	1	0	0	CorrectCommission	0.231846	0.816653	0	0	4.078261e+01
463.247467	1.279495	city	1	1	1.612866	1.612866	0	1	0	0	CorrectCommission	1.571096	0.891350	0	0	4.093478e+01
464.527008	1.279612	city	2	1	1.511571	1.511571	0	1	0	0	CorrectCommission	1.213341	0.970538	0	0	4.108696e+01
465.806671	1.279710	city	8	1	1.476668	1.476668	0	1	0	0	CorrectCommission	1.090070	1.050920	0	0	4.123913e+01
467.099579	1.306102	city	6	1	1.450519	1.450519	0	1	0	0	CorrectCommission	0.997715	1.128893	0	0	4.139130e+01
468.412506	1.319716	city	10	1	1.350066	1.350066	0	1	0	0	CorrectCommission	0.642936	1.200786	0	0	4.154348e+01
469.718811	1.292924	city	4	1	1.726915	1.726915	0	1	0	0	CorrectCommission	1.973894	1.263166	0	0	4.169565e+01
471.031708	1.332847	city	10	1	1.582628	1.582628	0	1	0	0	CorrectCommission	1.464299	1.313057	0	0	4.184783e+01
475.476807	7.557374	break	0	0	0.000000	1.783356	0	0	0	0	ThoughtProbe	2.173232	1.348257	0	42	42
479.902008	1.293015	city	6	1	1.847709	1.847709	0	1	0	0	CorrectCommission	2.400514	1.367436	0	0	4.173529e+01
481.208313	1.319629	city	2	1	1.294296	1.294296	0	1	0	0	CorrectCommission	0.445966	1.370268	0	0	4.147059e+01
482.521271	1.306234	city	5	1	1.672764	1.672764	0	1	0	0	CorrectCommission	1.782643	1.357418	0	0	4.120588e+01
483.834167	1.319591	city	3	1	1.936902	1.936902	0	1	0	0	CorrectCommission	2.715526	1.330320	0	0	4.094118e+01
485.160370	1.332824	city	2	0	0.000000	1.629915	0	0	0	1	OmissionError	1.631309	1.291034	0	0	4.067647e+01
486.493164	1.332759	city	4	1	1.176855	1.176855	0	1	0	0	CorrectCommission	0.031188	1.242032	0	0	4.041176e+01
487.819427	1.319748	city	5	1	1.002771	1.002771	0	1	0	0	CorrectCommission	0.583643	1.185934	0	0	4.014706e+01
489.132416	1.306215	mountain	2	0	0.000000	1.403087	1	0	0	0	CorrectOmission	0.830196	1.125235	0	0	3.988235e+01
490.431946	1.292887	city	3	1	1.795229	1.795229	0	1	0	0	CorrectCommission	2.215166	1.062220	0	0	3.961765e+01
491.731537	1.306265	city	2	1	1.596623	1.596623	0	1	0	0	CorrectCommission	1.513727	0.998829	0	0	3.935294e+01
493.037781	1.306212	city	7	1	1.387793	1.387793	0	1	0	0	CorrectCommission	0.776182	0.936695	0	0	3.908824e+01
494.337250	1.292779	mountain	10	1	1.086887	1.086887	0	0	1	0	CommissionError	0.286560	0.877104	0	0	3.882353e+01
495.623535	1.279750	city	3	1	1.122113	1.122113	0	1	0	0	CorrectCommission	0.162150	0.821011	0	0	3.855882e+01
496.916443	1.306085	city	6	1	1.091706	1.091706	0	1	0	0	CorrectCommission	0.269542	0.769087	0	0	3.829412e+01
498.216003	1.293056	city	10	1	1.723851	1.723851	0	1	0	0	CorrectCommission	1.963072	0.721710	1	0	3.802941e+01
499.515564	1.306063	city	8	1	1.326954	1.326954	0	1	0	0	CorrectCommission	0.561309	0.678998	1	0	3.776471e+01
500.821716	1.306227	city	10	1	1.368246	1.368246	0	1	0	0	CorrectCommission	0.707144	0.640926	1	0	3.750000e+01
502.154694	1.359700	city	1	1	1.191589	1.191589	0	1	0	0	CorrectCommission	0.083227	0.607247	1	0	3.723529e+01
503.480927	1.292772	city	2	1	1.129025	1.129025	0	1	0	0	CorrectCommission	0.137739	0.577587	1	0	3.697059e+01
504.787109	1.319598	city	4	1	1.228792	1.228792	0	1	0	0	CorrectCommission	0.214620	0.551420	1	0	3.670588e+01
506.106781	1.319737	city	8	1	0.867591	0.867591	0	1	0	0	CorrectCommission	1.061072	0.528164	1	0	3.644118e+01
507.419647	1.306027	city	6	1	0.954989	0.954989	0	1	0	0	CorrectCommission	0.752400	0.507209	1	0	3.617647e+01
508.719177	1.293028	city	10	1	1.055049	1.055049	0	1	0	0	CorrectCommission	0.399005	0.487991	1	0	3.591176e+01
510.012085	1.292795	city	8	1	1.270945	1.270945	0	1	0	0	CorrectCommission	0.363498	0.470099	1	0	3.564706e+01
511.311707	1.306419	city	6	1	1.065021	1.065021	0	1	0	0	CorrectCommission	0.363786	0.453239	1	0	3.538235e+01
512.618042	1.306245	city	1	1	0.870297	0.870297	0	1	0	0	CorrectCommission	1.051515	0.437255	1	0	3.511765e+01
513.930908	1.319526	city	6	1	1.174570	1.174570	0	1	0	0	CorrectCommission	0.023118	0.422103	1	0	3.485294e+01
515.237061	1.292806	city	3	1	1.099924	1.099924	0	1	0	0	CorrectCommission	0.240518	0.407850	1	0	3.458824e+01
516.529907	1.292847	city	6	1	1.259198	1.259198	0	1	0	0	CorrectCommission	0.322007	0.394545	1	0	3.432353e+01
517.816223	1.279738	city	8	1	1.123694	1.123694	0	1	0	0	CorrectCommission	0.156567	0.382199	1	0	3.405882e+01
519.102539	1.292939	city	6	1	1.083622	1.083622	0	1	0	0	CorrectCommission	0.298091	0.370745	1	0	3.379412e+01
520.415466	1.332892	city	8	1	1.020676	1.020676	0	1	0	0	CorrectCommission	0.520404	0.360034	1	0	3.352941e+01
521.721680	1.279579	city	10	1	0.877134	0.877134	0	1	0	0	CorrectCommission	1.027366	0.349863	1	0	3.326471e+01
526.173584	7.624190	break	0	0	1.264279	1.264279	0	0	0	0	ThoughtProbe	0.339953	0.339953	1	33	33
