onset	duration	trial_type	image_type	Press	ReactionTime	ReactionTime_Interpolated	CorrectOmission	CorrectCommission	CommissionError	OmissionError	response_type	nonsmoothVarianceTimeCourse	VarianceTimeCourse	In_the_Zone	ThoughtProbe	ThoughtProbe_Interpolated
0.652997	1.279557	city	4	1	2.041247	2.041247	0	1	0	0	CorrectCommission	5.060344	5.060344	0	0	43
1.932577	1.279603	city	10	1	1.607299	1.607299	0	1	0	0	CorrectCommission	2.481230	4.495141	0	0	43
3.212167	1.279578	city	1	1	1.345268	1.345268	0	1	0	0	CorrectCommission	0.923880	3.947964	0	0	43
4.491746	1.279580	city	2	1	1.250772	1.250772	0	1	0	0	CorrectCommission	0.362256	3.434867	0	0	43
5.771315	1.279557	city	8	1	1.018928	1.018928	0	1	0	0	CorrectCommission	1.015679	2.968323	0	0	43
7.050882	1.279577	city	7	1	0.967138	0.967138	0	1	0	0	CorrectCommission	1.323489	2.556248	0	0	43
8.330459	1.279575	city	1	1	0.876795	0.876795	0	1	0	0	CorrectCommission	1.860428	2.201726	0	0	43
9.610041	1.279589	city	2	1	0.937156	0.937156	0	1	0	0	CorrectCommission	1.501681	1.903466	0	0	43
10.889624	1.279578	city	6	1	0.866568	0.866568	0	1	0	0	CorrectCommission	1.921215	1.656765	0	0	43
12.169203	1.279579	mountain	10	1	0.914226	0.914226	0	0	1	0	CommissionError	1.637967	1.454737	0	0	43
13.448808	1.279630	city	1	1	1.068560	1.068560	0	1	0	0	CorrectCommission	0.720698	1.289589	0	0	43
14.735048	1.292852	city	6	1	1.052607	1.052607	0	1	0	0	CorrectCommission	0.815512	1.153673	0	0	43
16.021276	1.279604	city	9	1	0.941256	0.941256	0	1	0	0	CorrectCommission	1.477317	1.040250	0	0	43
17.300858	1.279559	mountain	9	0	0.000000	1.014581	1	0	0	0	CorrectOmission	1.041514	0.943930	0	0	43
18.580439	1.279601	mountain	6	0	0.000000	1.151376	1	0	0	0	CorrectOmission	0.228493	0.860810	0	0	43
19.860033	1.279587	city	3	1	1.230430	1.230430	0	1	0	0	CorrectCommission	0.241356	0.788319	0	0	43
21.139599	1.279546	city	6	1	1.130535	1.130535	0	1	0	0	CorrectCommission	0.352358	0.724957	1	0	43
22.419159	1.279576	city	10	1	0.875287	0.875287	0	1	0	0	CorrectCommission	1.869391	0.669952	1	0	43
23.698738	1.279582	city	6	1	1.176363	1.176363	0	1	0	0	CorrectCommission	0.079983	0.622937	1	0	43
24.978319	1.279580	city	10	1	1.135513	1.135513	0	1	0	0	CorrectCommission	0.322774	0.583793	1	0	43
26.257896	1.279575	city	3	1	1.235371	1.235371	0	1	0	0	CorrectCommission	0.270721	0.552402	1	0	43
27.537485	1.279601	city	4	1	1.229270	1.229270	0	1	0	0	CorrectCommission	0.234462	0.528604	1	0	43
28.817066	1.279562	city	9	1	1.128262	1.128262	0	1	0	0	CorrectCommission	0.365865	0.512176	1	0	43
30.096638	1.279580	city	7	1	1.022231	1.022231	0	1	0	0	CorrectCommission	0.996047	0.502822	1	0	43
31.376162	1.279466	city	1	1	1.282564	1.282564	0	1	0	0	CorrectCommission	0.551210	0.500144	1	0	43
32.655750	1.279714	city	3	1	1.185189	1.185189	0	1	0	0	CorrectCommission	0.027529	0.503668	1	0	43
33.941986	1.292755	city	4	1	1.277601	1.277601	0	1	0	0	CorrectCommission	0.521712	0.512746	1	0	43
35.228226	1.279725	city	2	1	1.228934	1.228934	0	1	0	0	CorrectCommission	0.232466	0.526524	1	0	43
36.507866	1.279561	mountain	4	0	0.000000	1.300883	1	0	0	0	CorrectOmission	0.660086	0.543912	1	0	43
37.787437	1.279581	city	9	1	1.335632	1.335632	0	1	0	0	CorrectCommission	0.866612	0.563587	1	0	43
39.067017	1.279578	city	6	1	1.175365	1.175365	0	1	0	0	CorrectCommission	0.085918	0.584009	1	0	43
40.346523	1.279435	city	1	1	1.235326	1.235326	0	1	0	0	CorrectCommission	0.270455	0.603555	1	0	43
41.626026	1.279570	city	8	1	1.294889	1.294889	0	1	0	0	CorrectCommission	0.624457	0.620664	1	0	43
42.905632	1.279640	city	9	1	1.314249	1.314249	0	1	0	0	CorrectCommission	0.739526	0.634068	1	0	43
44.185291	1.279678	city	4	1	1.015834	1.015834	0	1	0	0	CorrectCommission	1.034068	0.643006	1	0	43
45.464928	1.279594	city	9	1	0.909077	0.909077	0	1	0	0	CorrectCommission	1.668568	0.647351	1	0	43
46.744511	1.279574	city	5	1	0.972129	0.972129	0	1	0	0	CorrectCommission	1.293827	0.647739	1	0	43
48.024078	1.279564	city	1	1	1.129824	1.129824	0	1	0	0	CorrectCommission	0.356581	0.645422	1	0	43
49.303570	1.279420	city	4	1	1.136892	1.136892	0	1	0	0	CorrectCommission	0.314576	0.642134	1	0	43
50.583153	1.279739	city	6	1	1.241941	1.241941	0	1	0	0	CorrectCommission	0.309771	0.639712	1	0	43
51.862808	1.279575	city	7	1	1.187518	1.187518	0	1	0	0	CorrectCommission	0.013685	0.639865	1	0	43
53.142395	1.279600	city	1	1	1.232134	1.232134	0	1	0	0	CorrectCommission	0.251483	0.643854	1	0	43
54.421986	1.279583	city	4	1	1.303281	1.303281	0	1	0	0	CorrectCommission	0.674336	0.652276	1	0	43
55.714886	1.306212	city	8	1	1.067210	1.067210	0	1	0	0	CorrectCommission	0.728720	0.665029	1	0	43
57.021111	1.306238	city	3	1	0.993014	0.993014	0	1	0	0	CorrectCommission	1.169698	0.681335	1	0	43
61.206390	7.064322	break	0	0	0.000000	1.138730	0	0	0	0	ThoughtProbe	0.303649	0.699922	1	43	43
65.385025	1.292951	city	2	1	1.261145	1.261145	0	1	0	0	CorrectCommission	0.423908	0.719277	1	0	4.347500e+01
66.677948	1.292885	city	9	1	1.117044	1.117044	0	1	0	0	CorrectCommission	0.432543	0.737861	0	0	4.395000e+01
67.984169	1.319564	city	5	1	0.865026	0.865026	0	1	0	0	CorrectCommission	1.930375	0.754353	0	0	4.442500e+01
69.283752	1.279605	city	9	1	0.962128	0.962128	0	1	0	0	CorrectCommission	1.353267	0.767768	0	0	4.490000e+01
70.576675	1.306234	city	3	1	1.050620	1.050620	0	1	0	0	CorrectCommission	0.827323	0.777623	0	0	4.537500e+01
71.889565	1.319556	city	10	1	1.193697	1.193697	0	1	0	0	CorrectCommission	0.023039	0.783892	0	0	4.585000e+01
73.189125	1.279565	city	5	1	1.108427	1.108427	0	1	0	0	CorrectCommission	0.483752	0.786929	0	0	4.632500e+01
74.468712	1.279598	city	8	1	0.994376	0.994376	0	1	0	0	CorrectCommission	1.161601	0.787360	0	0	4.680000e+01
75.748299	1.279575	city	7	1	1.188365	1.188365	0	1	0	0	CorrectCommission	0.008655	0.785982	0	0	4.727500e+01
77.027878	1.279587	city	6	1	1.620499	1.620499	0	1	0	0	CorrectCommission	2.559684	0.783672	0	0	4.775000e+01
78.327461	1.319574	city	5	1	1.223369	1.223369	0	1	0	0	CorrectCommission	0.199389	0.781217	0	0	4.822500e+01
79.627022	1.279550	mountain	1	0	0.000000	1.089708	1	0	0	0	CorrectOmission	0.595006	0.779408	0	0	4.870000e+01
80.906601	1.279604	city	1	1	1.133873	1.133873	0	1	0	0	CorrectCommission	0.332519	0.778837	0	0	4.917500e+01
82.186180	1.279554	mountain	4	0	0.000000	1.270219	1	0	0	0	CorrectOmission	0.477834	0.779973	0	0	4.965000e+01
83.465744	1.279583	city	4	1	1.367700	1.367700	0	1	0	0	CorrectCommission	1.057204	0.783101	0	0	5.012500e+01
84.745255	1.279440	city	5	1	1.295273	1.295273	0	1	0	0	CorrectCommission	0.626744	0.788318	0	0	5.060000e+01
86.031509	1.293063	city	4	1	1.457558	1.457558	0	1	0	0	CorrectCommission	1.591262	0.795553	0	0	5.107500e+01
87.317825	1.279576	city	9	1	1.128442	1.128442	0	1	0	0	CorrectCommission	0.364799	0.804503	0	0	5.155000e+01
88.597397	1.279565	city	10	1	1.340924	1.340924	0	1	0	0	CorrectCommission	0.898061	0.814687	0	0	5.202500e+01
89.876968	1.279582	city	7	1	1.313943	1.313943	0	1	0	0	CorrectCommission	0.737704	0.825366	0	0	5.250000e+01
91.156555	1.279588	city	5	1	1.246864	1.246864	0	1	0	0	CorrectCommission	0.339030	0.835643	0	0	5.297500e+01
92.449471	1.306244	city	10	1	1.027307	1.027307	0	1	0	0	CorrectCommission	0.965879	0.844538	0	0	5.345000e+01
93.742371	1.279558	city	7	1	1.234892	1.234892	0	1	0	0	CorrectCommission	0.267875	0.851042	0	0	5.392500e+01
95.021942	1.279578	city	5	1	1.414899	1.414899	0	1	0	0	CorrectCommission	1.337726	0.854394	0	0	5.440000e+01
96.308128	1.292798	city	1	1	1.536055	1.536055	0	1	0	0	CorrectCommission	2.057802	0.854229	0	0	5.487500e+01
97.607719	1.306374	city	9	1	1.116267	1.116267	0	1	0	0	CorrectCommission	0.437158	0.850820	0	0	5.535000e+01
98.900688	1.279575	city	1	1	1.047674	1.047674	0	1	0	0	CorrectCommission	0.844830	0.845250	0	0	5.582500e+01
100.200233	1.319515	city	5	1	0.933701	0.933701	0	1	0	0	CorrectCommission	1.522219	0.839335	0	0	5.630000e+01
101.519791	1.319597	city	1	1	1.143078	1.143078	0	1	0	0	CorrectCommission	0.277812	0.835517	0	0	5.677500e+01
102.819389	1.279605	mountain	3	0	0.000000	1.335717	1	0	0	0	CorrectOmission	0.867118	0.836608	0	0	5.725000e+01
104.098976	1.279568	city	7	1	1.389826	1.389826	0	1	0	0	CorrectCommission	1.188706	0.845389	0	0	5.772500e+01
105.385208	1.292889	city	8	1	1.183610	1.183610	0	1	0	0	CorrectCommission	0.036912	0.864140	0	0	5.820000e+01
106.684784	1.306256	city	7	1	1.125758	1.125758	0	1	0	0	CorrectCommission	0.380747	0.894335	0	0	5.867500e+01
107.977699	1.279581	city	9	1	1.132324	1.132324	0	1	0	0	CorrectCommission	0.341727	0.936223	0	0	5.915000e+01
109.257278	1.279577	city	1	1	1.069240	1.069240	0	1	0	0	CorrectCommission	0.716655	0.988717	0	0	5.962500e+01
110.536858	1.279580	city	2	1	1.293420	1.293420	0	1	0	0	CorrectCommission	0.615729	1.049405	0	0	6.010000e+01
111.836426	1.319550	city	9	1	1.351583	1.351583	0	1	0	0	CorrectCommission	0.961416	1.114803	0	0	6.057500e+01
113.135986	1.279577	city	10	1	1.046004	1.046004	0	1	0	0	CorrectCommission	0.854760	1.180810	0	0	6.105000e+01
114.422241	1.292925	city	6	1	1.333875	1.333875	0	1	0	0	CorrectCommission	0.856170	1.243194	0	0	6.152500e+01
115.068703	11.756101	break	0	0	0.000000	1.710611	0	0	0	0	ThoughtProbe	3.095254	1.298179	0	62	62
127.464607	1.279608	city	6	1	1.847696	1.847696	0	1	0	0	CorrectCommission	3.909997	1.342795	0	0	6.182609e+01
128.744202	1.279580	city	1	1	1.416612	1.416612	0	1	0	0	CorrectCommission	1.347907	1.375190	0	0	6.165217e+01
130.030396	1.292800	city	5	1	1.136686	1.136686	0	1	0	0	CorrectCommission	0.315799	1.394699	0	0	6.147826e+01
131.316620	1.279665	city	8	1	0.993672	0.993672	0	1	0	0	CorrectCommission	1.165786	1.401570	0	0	6.130435e+01
132.609589	1.306261	city	10	1	1.056921	1.056921	0	1	0	0	CorrectCommission	0.789875	1.396734	0	0	6.113043e+01
133.909164	1.292909	city	4	1	0.964211	0.964211	0	1	0	0	CorrectCommission	1.340884	1.381490	0	0	6.095652e+01
135.195419	1.279579	city	7	1	0.910985	0.910985	0	1	0	0	CorrectCommission	1.657229	1.357204	0	0	6.078261e+01
136.474930	1.279463	city	10	1	0.835874	0.835874	0	1	0	0	CorrectCommission	2.103638	1.325203	0	0	6.060870e+01
137.754517	1.279694	city	9	1	0.932962	0.932962	0	1	0	0	CorrectCommission	1.526611	1.286685	0	0	6.043478e+01
139.060806	1.332895	city	6	1	1.003436	1.003436	0	1	0	0	CorrectCommission	1.107756	1.242735	0	0	6.026087e+01
140.366959	1.279418	city	2	1	0.981185	0.981185	0	1	0	0	CorrectCommission	1.240004	1.194425	0	0	6.008696e+01
141.646545	1.279734	city	3	1	1.034636	1.034636	0	1	0	0	CorrectCommission	0.922320	1.142810	0	0	5.991304e+01
142.932861	1.292916	city	7	1	0.953061	0.953061	0	1	0	0	CorrectCommission	1.407151	1.089006	0	0	5.973913e+01
144.232437	1.306233	mountain	3	1	0.942639	0.942639	0	0	1	0	CommissionError	1.469094	1.034124	0	0	5.956522e+01
145.525345	1.279577	city	10	1	1.347307	1.347307	0	1	0	0	CorrectCommission	0.936003	0.979235	0	0	5.939130e+01
146.824905	1.319547	city	3	1	1.170990	1.170990	0	1	0	0	CorrectCommission	0.111916	0.925297	0	0	5.921739e+01
148.131134	1.292907	city	5	1	1.049965	1.049965	0	1	0	0	CorrectCommission	0.831214	0.873124	0	0	5.904348e+01
149.424042	1.292909	mountain	5	0	0.000000	1.135218	1	0	0	0	CorrectOmission	0.324524	0.823306	0	0	5.886957e+01
150.710281	1.279578	mountain	8	0	0.000000	1.302939	1	0	0	0	CorrectOmission	0.672301	0.776348	0	0	5.869565e+01
151.989807	1.279468	city	7	1	1.429315	1.429315	0	1	0	0	CorrectCommission	1.423405	0.732705	0	0	5.852174e+01
153.276062	1.293029	city	8	1	1.390537	1.390537	0	1	0	0	CorrectCommission	1.192932	0.692899	1	0	5.834783e+01
154.569031	1.292920	mountain	9	0	0.000000	1.255803	1	0	0	0	CorrectOmission	0.392159	0.657640	1	0	5.817391e+01
155.868607	1.306215	city	10	1	1.191777	1.191777	0	1	0	0	CorrectCommission	0.011628	0.627884	1	0	58
157.188141	1.332880	city	4	1	1.365122	1.365122	0	1	0	0	CorrectCommission	1.041881	0.604810	1	0	5.782609e+01
158.494400	1.279620	city	5	1	1.288739	1.288739	0	1	0	0	CorrectCommission	0.587906	0.589665	1	0	5.765217e+01
159.780655	1.292903	city	2	1	1.164528	1.164528	0	1	0	0	CorrectCommission	0.150326	0.583618	1	0	5.747826e+01
161.073563	1.292908	city	6	1	1.212352	1.212352	0	1	0	0	CorrectCommission	0.133911	0.587495	1	0	5.730435e+01
162.359818	1.279584	city	1	1	1.087810	1.087810	0	1	0	0	CorrectCommission	0.606289	0.601605	1	0	5.713043e+01
163.672714	1.346223	city	3	1	1.197246	1.197246	0	1	0	0	CorrectCommission	0.044128	0.625509	1	0	5.695652e+01
164.985611	1.279578	city	2	1	1.104405	1.104405	0	1	0	0	CorrectCommission	0.507659	0.658033	1	0	5.678261e+01
166.278519	1.306237	city	10	1	1.197481	1.197481	0	1	0	0	CorrectCommission	0.045527	0.697308	1	0	5.660870e+01
167.571426	1.279576	city	6	1	1.423014	1.423014	0	1	0	0	CorrectCommission	1.385952	0.740948	0	0	5.643478e+01
168.857681	1.292915	city	8	1	1.069313	1.069313	0	1	0	0	CorrectCommission	0.716225	0.786296	0	0	5.626087e+01
170.177246	1.346219	city	2	1	1.048808	1.048808	0	1	0	0	CorrectCommission	0.838090	0.830803	0	0	5.608696e+01
171.496811	1.292909	city	6	1	1.057633	1.057633	0	1	0	0	CorrectCommission	0.785643	0.872276	0	0	5.591304e+01
172.789719	1.292908	city	3	1	0.856248	0.856248	0	1	0	0	CorrectCommission	1.982551	0.909169	0	0	5.573913e+01
174.082535	1.292735	city	7	1	1.331771	1.331771	0	1	0	0	CorrectCommission	0.843664	0.940623	0	0	5.556522e+01
175.368774	1.279753	city	4	1	1.483461	1.483461	0	1	0	0	CorrectCommission	1.745213	0.966568	0	0	5.539130e+01
176.661758	1.306211	city	3	1	1.443305	1.443305	0	1	0	0	CorrectCommission	1.506551	0.987438	0	0	5.521739e+01
177.968002	1.306261	city	8	1	1.206221	1.206221	0	1	0	0	CorrectCommission	0.097472	1.003977	0	0	5.504348e+01
179.267578	1.292905	city	6	1	1.151797	1.151797	0	1	0	0	CorrectCommission	0.225992	1.016964	0	0	5.486957e+01
180.567154	1.306242	city	1	1	1.013445	1.013445	0	1	0	0	CorrectCommission	1.048268	1.026898	0	0	5.469565e+01
181.873367	1.306177	city	10	1	1.042006	1.042006	0	1	0	0	CorrectCommission	0.878522	1.033897	0	0	5.452174e+01
183.199600	1.346284	city	7	1	1.067759	1.067759	0	1	0	0	CorrectCommission	0.725459	1.037707	0	0	5.434783e+01
184.519165	1.292867	city	1	1	0.925608	0.925608	0	1	0	0	CorrectCommission	1.570319	1.037832	0	0	5.417391e+01
185.165604	11.836000	break	0	0	0.000000	1.342338	0	0	0	0	ThoughtProbe	0.906469	1.033727	0	54	54
197.641464	1.279721	city	5	1	1.684425	1.684425	0	1	0	0	CorrectCommission	2.939620	1.025099	0	0	5.345000e+01
198.927689	1.292742	city	3	1	1.318342	1.318342	0	1	0	0	CorrectCommission	0.763852	1.012051	0	0	5.290000e+01
200.213928	1.279730	city	5	1	1.083209	1.083209	0	1	0	0	CorrectCommission	0.633634	0.995321	0	0	5.235000e+01
201.513580	1.319582	city	10	1	0.952145	0.952145	0	1	0	0	CorrectCommission	1.412597	0.976107	0	0	5.180000e+01
202.853149	1.359531	city	5	1	1.162460	1.162460	0	1	0	0	CorrectCommission	0.162617	0.955971	0	0	5.125000e+01
204.172699	1.279580	city	10	1	1.053907	1.053907	0	1	0	0	CorrectCommission	0.807788	0.936649	0	0	5.070000e+01
205.452286	1.279593	mountain	7	0	0.000000	1.115589	1	0	0	0	CorrectOmission	0.441185	0.919733	0	0	5.015000e+01
206.751877	1.319574	city	5	1	1.290692	1.290692	0	1	0	0	CorrectCommission	0.599513	0.906471	0	0	4.960000e+01
208.051437	1.279575	city	3	1	1.522398	1.522398	0	1	0	0	CorrectCommission	1.976629	0.897587	0	0	4.905000e+01
209.351013	1.319567	mountain	9	0	0.000000	1.257695	1	0	0	0	CorrectOmission	0.403400	0.893124	0	0	4.850000e+01
210.657257	1.292914	city	10	1	1.038176	1.038176	0	1	0	0	CorrectCommission	0.901284	0.892520	0	0	4.795000e+01
211.950165	1.292900	city	9	1	1.405433	1.405433	0	1	0	0	CorrectCommission	1.281464	0.894527	0	0	4.740000e+01
213.256393	1.319560	city	1	1	1.192614	1.192614	0	1	0	0	CorrectCommission	0.016600	0.897429	0	0	4.685000e+01
214.562637	1.292920	city	8	1	1.153715	1.153715	0	1	0	0	CorrectCommission	0.214589	0.899234	0	0	4.630000e+01
215.855545	1.292898	city	5	1	1.057092	1.057092	0	1	0	0	CorrectCommission	0.788857	0.897900	0	0	4.575000e+01
217.141769	1.279559	city	4	1	0.887334	0.887334	0	1	0	0	CorrectCommission	1.797796	0.891669	0	0	4.520000e+01
218.421341	1.279588	city	5	1	0.945592	0.945592	0	1	0	0	CorrectCommission	1.451542	0.879328	0	0	4.465000e+01
219.714188	1.306091	city	4	1	0.926403	0.926403	0	1	0	0	CorrectCommission	1.565593	0.860413	0	0	4.410000e+01
221.013763	1.293070	mountain	8	1	0.887325	0.887325	0	0	1	0	CommissionError	1.797849	0.835277	0	0	4.355000e+01
222.313416	1.306237	city	2	1	1.242525	1.242525	0	1	0	0	CorrectCommission	0.313241	0.805008	0	0	43
223.619659	1.306236	city	10	1	1.143603	1.143603	0	1	0	0	CorrectCommission	0.274688	0.771218	0	0	4.245000e+01
224.912476	1.279402	city	5	1	1.313707	1.313707	0	1	0	0	CorrectCommission	0.736305	0.735737	0	0	4.190000e+01
226.205383	1.306423	city	8	1	1.233819	1.233819	0	1	0	0	CorrectCommission	0.261499	0.700226	1	0	4.135000e+01
227.498383	1.279576	city	7	1	1.153743	1.153743	0	1	0	0	CorrectCommission	0.214426	0.666023	1	0	4.080000e+01
228.804611	1.332872	city	1	1	1.223995	1.223995	0	1	0	0	CorrectCommission	0.203109	0.633972	1	0	4.025000e+01
230.110764	1.279441	city	7	1	1.245113	1.245113	0	1	0	0	CorrectCommission	0.328625	0.604453	1	0	3.970000e+01
231.390350	1.279738	city	2	1	1.362578	1.362578	0	1	0	0	CorrectCommission	1.026764	0.577594	1	0	3.915000e+01
232.683334	1.306230	city	3	1	1.434243	1.434243	0	1	0	0	CorrectCommission	1.452696	0.553446	1	0	3.860000e+01
233.996231	1.319571	city	2	1	1.291937	1.291937	0	1	0	0	CorrectCommission	0.606913	0.532244	1	0	3.805000e+01
235.295731	1.279413	city	6	1	1.313855	1.313855	0	1	0	0	CorrectCommission	0.737183	0.514546	1	0	3.750000e+01
236.588623	1.306379	city	2	1	1.128444	1.128444	0	1	0	0	CorrectCommission	0.364788	0.501174	1	0	3.695000e+01
237.894958	1.306273	city	6	1	1.245300	1.245300	0	1	0	0	CorrectCommission	0.329733	0.493125	1	0	3.640000e+01
239.207809	1.319428	city	7	1	1.190822	1.190822	0	1	0	0	CorrectCommission	0.005948	0.491251	1	0	3.585000e+01
240.507370	1.279705	city	2	1	1.197356	1.197356	0	1	0	0	CorrectCommission	0.044784	0.496004	1	0	3.530000e+01
241.787018	1.279582	city	8	1	1.195766	1.195766	0	1	0	0	CorrectCommission	0.035336	0.507177	1	0	3.475000e+01
243.073242	1.292883	city	9	1	1.279518	1.279518	0	1	0	0	CorrectCommission	0.533105	0.523736	1	0	3.420000e+01
244.359482	1.279600	city	7	1	1.213806	1.213806	0	1	0	0	CorrectCommission	0.142554	0.543858	1	0	3.365000e+01
245.652405	1.306224	city	6	1	1.268154	1.268154	0	1	0	0	CorrectCommission	0.465565	0.565154	1	0	3.310000e+01
246.965302	1.319583	city	8	1	1.091622	1.091622	0	1	0	0	CorrectCommission	0.583636	0.585013	1	0	3.255000e+01
247.625092	8.890240	break	0	0	0.000000	1.291072	0	0	0	0	ThoughtProbe	0.601776	0.601041	1	32	32
257.155212	1.279742	city	8	1	1.535647	1.535647	0	1	0	0	CorrectCommission	2.055377	0.611450	1	0	3.280435e+01
258.441528	1.292891	mountain	4	0	0.000000	1.494487	1	0	0	0	CorrectOmission	1.810746	0.615358	1	0	3.360870e+01
259.741089	1.306256	city	9	1	1.327683	1.327683	0	1	0	0	CorrectCommission	0.819364	0.612938	1	0	3.441304e+01
261.054016	1.319569	city	7	1	1.195325	1.195325	0	1	0	0	CorrectCommission	0.032714	0.605305	1	0	3.521739e+01
262.380249	1.332927	city	10	1	1.165830	1.165830	0	1	0	0	CorrectCommission	0.142588	0.594232	1	0	3.602174e+01
263.693085	1.292755	city	1	1	1.248884	1.248884	0	1	0	0	CorrectCommission	0.351034	0.581769	1	0	3.682609e+01
264.979309	1.279675	city	5	1	1.153275	1.153275	0	1	0	0	CorrectCommission	0.217207	0.569814	1	0	3.763043e+01
266.285614	1.332915	city	2	1	1.167747	1.167747	0	1	0	0	CorrectCommission	0.131191	0.559832	1	0	3.843478e+01
267.605194	1.306229	city	4	1	1.180394	1.180394	0	1	0	0	CorrectCommission	0.056028	0.552612	1	0	3.923913e+01
268.911407	1.306243	city	7	1	1.002885	1.002885	0	1	0	0	CorrectCommission	1.111030	0.548249	1	0	4.004348e+01
270.224335	1.319567	city	5	1	1.035105	1.035105	0	1	0	0	CorrectCommission	0.919533	0.546291	1	0	4.084783e+01
271.523895	1.279573	mountain	6	0	0.000000	1.200333	1	0	0	0	CorrectOmission	0.062478	0.545953	1	0	4.165217e+01
272.810150	1.292913	mountain	5	0	0.000000	1.370487	1	0	0	0	CorrectOmission	1.073767	0.546382	1	0	4.245652e+01
274.103058	1.292912	city	7	1	1.417485	1.417485	0	1	0	0	CorrectCommission	1.353096	0.546814	1	0	4.326087e+01
275.395966	1.292905	city	5	1	1.213247	1.213247	0	1	0	0	CorrectCommission	0.139228	0.546783	1	0	4.406522e+01
276.695526	1.306229	city	3	1	1.185453	1.185453	0	1	0	0	CorrectCommission	0.025958	0.546212	1	0	4.486957e+01
278.001678	1.306080	city	10	1	1.132900	1.132900	0	1	0	0	CorrectCommission	0.338302	0.545305	1	0	4.567391e+01
279.294586	1.279745	city	7	1	1.296658	1.296658	0	1	0	0	CorrectCommission	0.634975	0.544515	1	0	4.647826e+01
280.587585	1.306235	city	4	1	1.030353	1.030353	0	1	0	0	CorrectCommission	0.947777	0.544427	1	0	4.728261e+01
281.893829	1.306273	city	2	1	1.275385	1.275385	0	1	0	0	CorrectCommission	0.508538	0.545655	1	0	4.808696e+01
283.186737	1.279550	city	9	1	1.258732	1.258732	0	1	0	0	CorrectCommission	0.409564	0.548753	1	0	4.889130e+01
284.466309	1.279558	city	1	1	1.255337	1.255337	0	1	0	0	CorrectCommission	0.389385	0.554135	1	0	4.969565e+01
285.779205	1.346241	city	10	1	1.096898	1.096898	0	1	0	0	CorrectCommission	0.552276	0.562048	1	0	5.050000e+01
287.092102	1.279553	city	7	1	1.212803	1.212803	0	1	0	0	CorrectCommission	0.136592	0.572550	1	0	5.130435e+01
288.378326	1.292931	city	1	1	1.016837	1.016837	0	1	0	0	CorrectCommission	1.028110	0.585563	1	0	5.210870e+01
289.677917	1.306251	city	2	1	1.215026	1.215026	0	1	0	0	CorrectCommission	0.149806	0.600852	1	0	5.291304e+01
290.970764	1.279397	city	5	1	1.391319	1.391319	0	1	0	0	CorrectCommission	1.197583	0.618117	1	0	5.371739e+01
292.296967	1.373051	city	8	1	1.110935	1.110935	0	1	0	0	CorrectCommission	0.468849	0.636944	1	0	5.452174e+01
293.643280	1.319564	mountain	6	0	0.000000	1.214817	1	0	0	0	CorrectOmission	0.148559	0.656874	1	0	5.532609e+01
294.956177	1.306238	city	1	1	1.393489	1.393489	0	1	0	0	CorrectCommission	1.210474	0.677367	1	0	5.613043e+01
296.249084	1.279581	city	8	1	1.337475	1.337475	0	1	0	0	CorrectCommission	0.877564	0.697784	1	0	5.693478e+01
297.555328	1.332874	city	6	1	1.085806	1.085806	0	1	0	0	CorrectCommission	0.618202	0.717390	1	0	5.773913e+01
298.874878	1.306258	city	4	1	1.179647	1.179647	0	1	0	0	CorrectCommission	0.060464	0.735356	0	0	5.854348e+01
300.187805	1.319570	city	1	1	1.264757	1.264757	0	1	0	0	CorrectCommission	0.445376	0.750823	0	0	5.934783e+01
301.487366	1.279566	city	5	1	1.479208	1.479208	0	1	0	0	CorrectCommission	1.719939	0.762929	0	0	6.015217e+01
302.786926	1.319572	city	4	1	1.083855	1.083855	0	1	0	0	CorrectCommission	0.629795	0.770930	0	0	6.095652e+01
304.093170	1.292911	city	9	1	0.975748	0.975748	0	1	0	0	CorrectCommission	1.272314	0.774394	0	0	6.176087e+01
305.386078	1.292911	city	2	1	1.061027	1.061027	0	1	0	0	CorrectCommission	0.765468	0.773186	0	0	6.256522e+01
306.692322	1.319540	city	7	1	1.020616	1.020616	0	1	0	0	CorrectCommission	1.005647	0.767595	0	0	6.336957e+01
308.011871	1.319568	city	6	1	1.086852	1.086852	0	1	0	0	CorrectCommission	0.611984	0.758346	0	0	6.417391e+01
309.324707	1.306090	city	2	1	1.125129	1.125129	0	1	0	0	CorrectCommission	0.384487	0.746593	0	0	6.497826e+01
310.650940	1.346392	city	1	1	0.958825	0.958825	0	1	0	0	CorrectCommission	1.372894	0.733857	0	0	6.578261e+01
311.970581	1.292888	city	4	1	1.306519	1.306519	0	1	0	0	CorrectCommission	0.693579	0.721859	1	0	6.658696e+01
313.283478	1.332913	city	5	1	1.260916	1.260916	0	1	0	0	CorrectCommission	0.422547	0.712451	1	0	6.739130e+01
314.589722	1.279580	city	10	1	1.136489	1.136489	0	1	0	0	CorrectCommission	0.316969	0.707412	1	0	6.819565e+01
318.848236	7.237433	break	0	0	0.000000	1.271536	0	0	0	0	ThoughtProbe	0.485662	0.708267	1	69	69
323.113495	1.293070	city	1	1	1.394311	1.394311	0	1	0	0	CorrectCommission	1.215362	0.716109	1	0	6.914706e+01
324.413147	1.306261	city	8	1	1.233071	1.233071	0	1	0	0	CorrectCommission	0.257055	0.731455	0	0	6.929412e+01
325.752716	1.372860	city	2	1	1.141277	1.141277	0	1	0	0	CorrectCommission	0.288515	0.754119	0	0	6.944118e+01
327.092285	1.306262	city	5	1	1.397831	1.397831	0	1	0	0	CorrectCommission	1.236282	0.783112	0	0	6.958824e+01
328.385193	1.279574	city	4	1	1.293883	1.293883	0	1	0	0	CorrectCommission	0.618481	0.816647	0	0	6.973529e+01
329.704742	1.359553	city	3	1	1.117761	1.117761	0	1	0	0	CorrectCommission	0.428279	0.852230	0	0	6.988235e+01
331.044220	1.319392	city	6	1	1.212709	1.212709	0	1	0	0	CorrectCommission	0.136034	0.886865	0	0	7.002941e+01
332.370392	1.332954	city	3	1	1.282446	1.282446	0	1	0	0	CorrectCommission	0.550507	0.917335	0	0	7.017647e+01
333.676727	1.279671	mountain	7	0	0.000000	1.488514	1	0	0	0	CorrectOmission	1.775246	0.940588	0	0	7.032353e+01
334.963013	1.292931	city	3	1	1.624860	1.624860	0	1	0	0	CorrectCommission	2.585600	0.954088	0	0	7.047059e+01
336.289185	1.359427	city	4	1	1.485430	1.485430	0	1	0	0	CorrectCommission	1.756918	0.956172	0	0	7.061765e+01
337.655426	1.373011	city	2	1	1.287434	1.287434	0	1	0	0	CorrectCommission	0.580152	0.946328	0	0	7.076471e+01
338.988373	1.292894	city	5	1	1.339272	1.339272	0	1	0	0	CorrectCommission	0.888245	0.925232	0	0	7.091176e+01
340.294556	1.319500	city	7	1	1.352142	1.352142	0	1	0	0	CorrectCommission	0.964734	0.894646	0	0	7.105882e+01
341.607452	1.306313	city	1	1	0.934538	0.934538	0	1	0	0	CorrectCommission	1.517240	0.857191	0	0	7.120588e+01
342.927063	1.332895	city	3	1	1.228683	1.228683	0	1	0	0	CorrectCommission	0.230970	0.816092	0	0	7.135294e+01
344.246643	1.306240	city	6	1	1.236687	1.236687	0	1	0	0	CorrectCommission	0.278541	0.774785	0	0	7.150000e+01
345.559540	1.319552	city	9	1	1.035311	1.035311	0	1	0	0	CorrectCommission	0.918309	0.736544	0	0	7.164706e+01
346.872406	1.306217	city	7	1	1.229794	1.229794	0	1	0	0	CorrectCommission	0.237577	0.704247	1	0	7.179412e+01
348.165253	1.279441	city	9	1	1.312903	1.312903	0	1	0	0	CorrectCommission	0.731524	0.680206	1	0	7.194118e+01
349.484833	1.359714	mountain	6	0	0.000000	1.301304	1	0	0	0	CorrectOmission	0.662587	0.666036	1	0	7.208824e+01
350.824463	1.319577	city	8	1	1.248211	1.248211	0	1	0	0	CorrectCommission	0.347033	0.662622	1	0	7.223529e+01
352.150696	1.332895	city	1	1	1.206836	1.206836	0	1	0	0	CorrectCommission	0.101128	0.670136	1	0	7.238235e+01
353.483612	1.332895	city	4	1	1.341343	1.341343	0	1	0	0	CorrectCommission	0.900553	0.688121	1	0	7.252941e+01
354.829834	1.359546	city	8	1	1.155443	1.155443	0	1	0	0	CorrectCommission	0.204323	0.715531	1	0	7.267647e+01
356.149384	1.279581	city	6	1	1.046648	1.046648	0	1	0	0	CorrectCommission	0.850929	0.750837	0	0	7.282353e+01
357.448944	1.319565	city	5	1	1.094519	1.094519	0	1	0	0	CorrectCommission	0.566418	0.792074	0	0	7.297059e+01
358.768524	1.319582	city	9	1	0.972502	0.972502	0	1	0	0	CorrectCommission	1.291605	0.836943	0	0	7.311765e+01
360.108063	1.359504	city	3	1	1.042339	1.042339	0	1	0	0	CorrectCommission	0.876541	0.882849	0	0	7.326471e+01
361.454285	1.332929	city	10	1	1.019068	1.019068	0	1	0	0	CorrectCommission	1.014846	0.927025	0	0	7.341176e+01
362.787201	1.332897	city	3	1	1.290575	1.290575	0	1	0	0	CorrectCommission	0.598818	0.966584	0	0	7.355882e+01
364.093445	1.279571	city	1	1	1.363570	1.363570	0	1	0	0	CorrectCommission	1.032656	0.998693	0	0	7.370588e+01
365.386261	1.306061	city	6	1	1.352886	1.352886	0	1	0	0	CorrectCommission	0.969158	1.020778	0	0	7.385294e+01
368.898438	5.718284	break	0	1	1.235367	1.235367	0	0	0	0	ThoughtProbe	0.270699	1.030760	0	74	74
372.397369	1.279597	city	7	1	1.779218	1.779218	0	1	0	0	CorrectCommission	3.503010	1.027279	0	0	7.350000e+01
373.676941	1.279560	city	5	1	0.909256	0.909256	0	1	0	0	CorrectCommission	1.667505	1.009811	0	0	73
374.956512	1.279579	city	4	1	1.027773	1.027773	0	1	0	0	CorrectCommission	0.963112	0.978913	0	0	7.250000e+01
376.236115	1.279595	city	8	1	1.019254	1.019254	0	1	0	0	CorrectCommission	1.013742	0.936096	0	0	7.200000e+01
377.515686	1.279581	mountain	10	0	0.000000	1.262048	1	0	0	0	CorrectOmission	0.429276	0.883703	0	0	7.150000e+01
378.795258	1.279578	city	8	1	1.411321	1.411321	0	1	0	0	CorrectCommission	1.316460	0.824694	0	0	71
380.074860	1.279579	city	3	1	1.122238	1.122238	0	1	0	0	CorrectCommission	0.401670	0.762296	0	0	7.050000e+01
381.354431	1.279562	city	2	1	1.175648	1.175648	0	1	0	0	CorrectCommission	0.084235	0.699795	1	0	70
382.634003	1.279588	city	3	1	1.282198	1.282198	0	1	0	0	CorrectCommission	0.549034	0.640257	1	0	6.950000e+01
383.913574	1.279572	city	10	1	1.341659	1.341659	0	1	0	0	CorrectCommission	0.902433	0.586343	1	0	69
385.193146	1.279593	city	8	1	1.282297	1.282297	0	1	0	0	CorrectCommission	0.549619	0.540209	1	0	6.850000e+01
386.472748	1.279580	city	4	1	1.232950	1.232950	0	1	0	0	CorrectCommission	0.256333	0.503470	1	0	68
387.752319	1.279579	city	1	1	1.185401	1.185401	0	1	0	0	CorrectCommission	0.026271	0.477203	1	0	6.750000e+01
389.031891	1.279583	city	5	1	1.175647	1.175647	0	1	0	0	CorrectCommission	0.084241	0.461915	1	0	67
390.311493	1.279575	mountain	7	1	1.069006	1.069006	0	0	1	0	CommissionError	0.718047	0.457595	1	0	6.650000e+01
391.591064	1.279580	city	2	1	1.241048	1.241048	0	1	0	0	CorrectCommission	0.304464	0.463687	1	0	66
392.870636	1.279583	city	4	1	1.184996	1.184996	0	1	0	0	CorrectCommission	0.028677	0.479154	1	0	6.550000e+01
394.150208	1.279575	city	8	1	1.068883	1.068883	0	1	0	0	CorrectCommission	0.718782	0.502485	1	0	65
395.429810	1.279581	city	4	1	1.175642	1.175642	0	1	0	0	CorrectCommission	0.084267	0.531758	1	0	6.450000e+01
396.709351	1.279555	city	9	1	1.175654	1.175654	0	1	0	0	CorrectCommission	0.084202	0.564775	1	0	64
397.988953	1.279607	city	1	1	1.027278	1.027278	0	1	0	0	CorrectCommission	0.966052	0.599160	1	0	6.350000e+01
399.268555	1.279579	city	2	1	1.395283	1.395283	0	1	0	0	CorrectCommission	1.221137	0.632584	1	0	63
400.548126	1.279575	city	10	1	1.175644	1.175644	0	1	0	0	CorrectCommission	0.084257	0.662882	1	0	6.250000e+01
401.827698	1.279578	city	7	1	1.335609	1.335609	0	1	0	0	CorrectCommission	0.866472	0.688346	1	0	62
403.107269	1.279582	city	9	1	1.549983	1.549983	0	1	0	0	CorrectCommission	2.140580	0.707763	1	0	6.150000e+01
404.386841	1.279553	city	1	1	1.228949	1.228949	0	1	0	0	CorrectCommission	0.232554	0.720507	1	0	61
405.666412	1.279580	city	4	1	1.282297	1.282297	0	1	0	0	CorrectCommission	0.549620	0.726609	0	0	6.050000e+01
406.945984	1.279598	mountain	3	0	0.000000	1.385009	1	0	0	0	CorrectOmission	1.160080	0.726544	0	0	60
408.225586	1.279579	city	4	1	1.397799	1.397799	0	1	0	0	CorrectCommission	1.236094	0.721145	1	0	5.950000e+01
409.505157	1.279585	city	9	1	1.181378	1.181378	0	1	0	0	CorrectCommission	0.050177	0.711464	1	0	59
410.784729	1.279558	city	8	1	1.228866	1.228866	0	1	0	0	CorrectCommission	0.232060	0.698605	1	0	5.850000e+01
412.064331	1.279600	city	4	1	1.069030	1.069030	0	1	0	0	CorrectCommission	0.717905	0.683597	1	0	58
413.343903	1.279575	city	10	1	1.122339	1.122339	0	1	0	0	CorrectCommission	0.401071	0.667380	1	0	5.750000e+01
414.623474	1.279584	city	2	1	1.408484	1.408484	0	1	0	0	CorrectCommission	1.299600	0.650841	1	0	57
415.903076	1.279576	city	3	1	1.388829	1.388829	0	1	0	0	CorrectCommission	1.182782	0.634807	1	0	5.650000e+01
417.182648	1.279576	city	8	1	1.283128	1.283128	0	1	0	0	CorrectCommission	0.554558	0.620113	1	0	56
418.462219	1.279586	city	4	1	1.228963	1.228963	0	1	0	0	CorrectCommission	0.232637	0.607619	1	0	5.550000e+01
419.741791	1.279557	city	7	1	1.243109	1.243109	0	1	0	0	CorrectCommission	0.316713	0.598186	1	0	55
421.021362	1.279571	city	3	1	1.069023	1.069023	0	1	0	0	CorrectCommission	0.717946	0.592570	1	0	5.450000e+01
421.661133	9.077039	break	0	0	0.000000	1.205918	0	0	0	0	ThoughtProbe	0.095669	0.591351	1	54	54
431.377960	1.279579	city	6	1	1.357871	1.357871	0	1	0	0	CorrectCommission	0.998787	0.594837	1	0	5.367647e+01
432.657562	1.279583	city	4	1	1.228963	1.228963	0	1	0	0	CorrectCommission	0.232634	0.602981	1	0	5.335294e+01
433.937134	1.279558	city	10	1	1.122334	1.122334	0	1	0	0	CorrectCommission	0.401097	0.615372	1	0	5.302941e+01
435.216705	1.279599	city	8	1	1.122353	1.122353	0	1	0	0	CorrectCommission	0.400987	0.631216	1	0	5.270588e+01
436.496277	1.279574	city	6	1	1.068967	1.068967	0	1	0	0	CorrectCommission	0.718278	0.649480	1	0	5.238235e+01
437.775879	1.279580	city	3	1	1.068994	1.068994	0	1	0	0	CorrectCommission	0.718121	0.668957	1	0	5.205882e+01
439.055450	1.279579	mountain	1	0	0.000000	1.013669	1	0	0	0	CorrectOmission	1.046939	0.688394	1	0	5.173529e+01
440.335022	1.279587	city	5	1	1.068914	1.068914	0	1	0	0	CorrectCommission	0.718594	0.706684	1	0	5.141176e+01
441.614594	1.279551	city	6	1	1.400652	1.400652	0	1	0	0	CorrectCommission	1.253051	0.722936	1	0	5.108824e+01
442.894165	1.279600	city	8	1	1.228966	1.228966	0	1	0	0	CorrectCommission	0.232652	0.736478	0	0	5.076471e+01
444.173767	1.279581	city	1	1	1.282275	1.282275	0	1	0	0	CorrectCommission	0.549491	0.746978	0	0	5.044118e+01
445.453339	1.279578	city	8	1	1.036038	1.036038	0	1	0	0	CorrectCommission	0.913992	0.754353	0	0	5.011765e+01
446.732910	1.279579	city	10	1	0.962394	0.962394	0	1	0	0	CorrectCommission	1.351686	0.758755	0	0	4.979412e+01
448.012482	1.279558	city	2	1	1.019598	1.019598	0	1	0	0	CorrectCommission	1.011698	0.760499	0	0	4.947059e+01
449.292053	1.279594	city	6	1	1.194493	1.194493	0	1	0	0	CorrectCommission	0.027766	0.760037	0	0	4.914706e+01
450.571655	1.279589	city	8	1	1.122243	1.122243	0	1	0	0	CorrectCommission	0.401639	0.757874	0	0	4.882353e+01
451.851227	1.279580	city	9	1	1.442219	1.442219	0	1	0	0	CorrectCommission	1.500097	0.754515	0	0	4.850000e+01
453.130829	1.279578	city	2	1	1.142305	1.142305	0	1	0	0	CorrectCommission	0.282403	0.750438	0	0	4.817647e+01
454.410400	1.279580	city	5	1	0.962318	0.962318	0	1	0	0	CorrectCommission	1.352134	0.746127	0	0	4.785294e+01
455.689972	1.279576	mountain	8	0	0.000000	1.162709	1	0	0	0	CorrectOmission	0.161137	0.741938	0	0	4.752941e+01
456.969543	1.279578	city	3	1	1.406680	1.406680	0	1	0	0	CorrectCommission	1.288874	0.738137	0	0	4.720588e+01
458.249146	1.279582	city	9	1	1.357433	1.357433	0	1	0	0	CorrectCommission	0.996183	0.734787	0	0	4.688235e+01
459.528687	1.279552	city	6	1	1.176524	1.176524	0	1	0	0	CorrectCommission	0.079026	0.731758	0	0	4.655882e+01
460.808289	1.279602	city	7	1	1.069029	1.069029	0	1	0	0	CorrectCommission	0.717913	0.728712	0	0	4.623529e+01
462.087860	1.279579	city	5	1	1.228971	1.228971	0	1	0	0	CorrectCommission	0.232684	0.725088	1	0	4.591176e+01
463.367432	1.279562	city	9	1	1.175561	1.175561	0	1	0	0	CorrectCommission	0.084750	0.720227	1	0	4.558824e+01
464.647003	1.279596	city	10	1	0.912848	0.912848	0	1	0	0	CorrectCommission	1.646153	0.713465	1	0	4.526471e+01
465.926605	1.279557	city	5	1	0.873068	0.873068	0	1	0	0	CorrectCommission	1.882581	0.704262	1	0	4.494118e+01
467.206177	1.279610	city	6	1	1.179692	1.179692	0	1	0	0	CorrectCommission	0.060201	0.692349	1	0	4.461765e+01
468.485779	1.279570	city	2	1	1.015686	1.015686	0	1	0	0	CorrectCommission	1.034951	0.677853	1	0	4.429412e+01
469.765350	1.279579	city	1	1	1.123285	1.123285	0	1	0	0	CorrectCommission	0.395448	0.661163	1	0	4.397059e+01
471.044922	1.279578	city	8	1	1.082916	1.082916	0	1	0	0	CorrectCommission	0.635373	0.642981	1	0	4.364706e+01
472.324493	1.279583	city	10	1	1.335596	1.335596	0	1	0	0	CorrectCommission	0.866395	0.624110	1	0	4.332353e+01
472.964294	8.717127	break	0	0	0.000000	1.297590	0	0	0	0	ThoughtProbe	0.640513	0.605322	1	43	43
482.321198	1.279580	city	9	1	1.188755	1.188755	0	1	0	0	CorrectCommission	0.006334	0.587228	1	0	4.282353e+01
483.600800	1.279585	city	1	1	1.228946	1.228946	0	1	0	0	CorrectCommission	0.232536	0.570181	1	0	4.264706e+01
484.880371	1.279574	city	6	1	1.175617	1.175617	0	1	0	0	CorrectCommission	0.084421	0.554258	1	0	4.247059e+01
486.159943	1.279555	city	3	1	1.015681	1.015681	0	1	0	0	CorrectCommission	1.034980	0.539343	1	0	4.229412e+01
487.439514	1.279600	mountain	3	0	0.000000	1.019997	1	0	0	0	CorrectOmission	1.009330	0.525184	1	0	4.211765e+01
488.719116	1.279583	city	2	1	1.080501	1.080501	0	1	0	0	CorrectCommission	0.649731	0.511611	1	0	4.194118e+01
489.998688	1.279580	city	6	1	1.089130	1.089130	0	1	0	0	CorrectCommission	0.598447	0.498596	1	0	4.176471e+01
491.278259	1.279576	city	4	1	1.068999	1.068999	0	1	0	0	CorrectCommission	0.718090	0.486353	1	0	4.158824e+01
492.557831	1.279580	city	8	1	1.175641	1.175641	0	1	0	0	CorrectCommission	0.084273	0.475279	1	0	4.141176e+01
493.837433	1.279582	city	10	1	1.122334	1.122334	0	1	0	0	CorrectCommission	0.401100	0.465925	1	0	4.123529e+01
495.117004	1.279554	city	1	1	1.195053	1.195053	0	1	0	0	CorrectCommission	0.031097	0.458865	1	0	4.105882e+01
496.396576	1.279601	city	9	1	1.175658	1.175658	0	1	0	0	CorrectCommission	0.084174	0.454589	1	0	4.088235e+01
497.676147	1.279579	city	10	1	1.027056	1.027056	0	1	0	0	CorrectCommission	0.967375	0.453420	1	0	4.070588e+01
498.955750	1.279584	city	6	1	1.229680	1.229680	0	1	0	0	CorrectCommission	0.236899	0.455430	1	0	4.052941e+01
500.235321	1.279579	city	8	1	1.068993	1.068993	0	1	0	0	CorrectCommission	0.718128	0.460494	1	0	4.035294e+01
501.514893	1.279573	mountain	2	0	0.000000	1.122735	1	0	0	0	CorrectOmission	0.398716	0.468282	1	0	4.017647e+01
502.794464	1.279585	city	4	1	1.230011	1.230011	0	1	0	0	CorrectCommission	0.238868	0.478391	1	0	40
504.074066	1.279575	city	3	1	1.229925	1.229925	0	1	0	0	CorrectCommission	0.238355	0.490403	1	0	3.982353e+01
505.353607	1.279553	city	9	1	1.122325	1.122325	0	1	0	0	CorrectCommission	0.401155	0.504026	1	0	3.964706e+01
506.633209	1.279606	city	4	1	1.015634	1.015634	0	1	0	0	CorrectCommission	1.035261	0.519201	1	0	3.947059e+01
507.912781	1.279581	city	2	1	1.073280	1.073280	0	1	0	0	CorrectCommission	0.692644	0.536189	1	0	3.929412e+01
509.192383	1.279575	city	5	1	1.248455	1.248455	0	1	0	0	CorrectCommission	0.348483	0.555671	1	0	3.911765e+01
510.471954	1.279582	city	6	1	1.352011	1.352011	0	1	0	0	CorrectCommission	0.963955	0.578759	1	0	3.894118e+01
511.751526	1.279579	city	7	1	1.240666	1.240666	0	1	0	0	CorrectCommission	0.302195	0.606907	1	0	3.876471e+01
513.031128	1.279575	city	2	1	1.175972	1.175972	0	1	0	0	CorrectCommission	0.082306	0.641861	1	0	3.858824e+01
514.310669	1.279582	city	3	1	1.137129	1.137129	0	1	0	0	CorrectCommission	0.313165	0.685434	1	0	3.841176e+01
515.590271	1.279561	city	1	1	1.015700	1.015700	0	1	0	0	CorrectCommission	1.034867	0.739346	0	0	3.823529e+01
516.869812	1.279593	city	2	1	1.015703	1.015703	0	1	0	0	CorrectCommission	1.034850	0.804974	0	0	3.805882e+01
518.149414	1.279560	city	6	1	1.069016	1.069016	0	1	0	0	CorrectCommission	0.717990	0.883145	0	0	3.788235e+01
519.428955	1.279579	city	7	1	1.123249	1.123249	0	1	0	0	CorrectCommission	0.395664	0.973925	0	0	3.770588e+01
520.708557	1.279604	city	6	1	1.122346	1.122346	0	1	0	0	CorrectCommission	0.401029	1.076472	0	0	3.752941e+01
521.988159	1.279577	city	8	1	1.027074	1.027074	0	1	0	0	CorrectCommission	0.967267	1.188963	0	0	3.735294e+01
523.267761	1.279580	city	7	1	1.228934	1.228934	0	1	0	0	CorrectCommission	0.232467	1.308672	0	0	3.717647e+01
526.886658	5.958230	break	0	0	0.000000	1.430795	0	0	0	0	ThoughtProbe	1.432201	1.432201	0	37	37
