onset	duration	trial_type	image_type	Press	ReactionTime	ReactionTime_Interpolated	CorrectOmission	CorrectCommission	CommissionError	OmissionError	response_type	nonsmoothVarianceTimeCourse	VarianceTimeCourse	In_the_Zone	ThoughtProbe	ThoughtProbe_Interpolated
0.659597	1.292945	city	7	1	1.461211	1.461211	0	1	0	0	CorrectCommission	1.135548	1.135548	0	0	41
1.945862	1.279586	city	1	1	1.074398	1.074398	0	1	0	0	CorrectCommission	0.238312	1.084606	0	0	41
3.225354	1.279399	city	3	1	0.801517	0.801517	0	1	0	0	CorrectCommission	1.207514	1.033551	0	0	41
4.504925	1.279742	city	4	1	0.594067	0.594067	0	1	0	0	CorrectCommission	1.944321	0.982429	0	0	41
5.784511	1.279431	mountain	9	1	0.535536	0.535536	0	0	1	0	CommissionError	2.152208	0.931551	0	0	41
7.064120	1.279788	city	4	1	1.127864	1.127864	0	1	0	0	CorrectCommission	0.048414	0.881584	0	0	41
8.343691	1.279354	city	5	1	1.250188	1.250188	0	1	0	0	CorrectCommission	0.386049	0.833490	0	0	41
9.623181	1.279626	city	7	1	1.346873	1.346873	0	1	0	0	CorrectCommission	0.729450	0.788325	0	0	41
10.902790	1.279593	city	9	1	1.231085	1.231085	0	1	0	0	CorrectCommission	0.318201	0.747100	1	0	41
12.182452	1.279730	city	3	1	1.177791	1.177791	0	1	0	0	CorrectCommission	0.128915	0.710678	1	0	41
13.468698	1.292760	city	7	1	1.062275	1.062275	0	1	0	0	CorrectCommission	0.281370	0.679635	1	0	41
14.754857	1.279561	city	9	1	0.909164	0.909164	0	1	0	0	CorrectCommission	0.825179	0.654226	1	0	41
16.034418	1.279562	mountain	1	0	0.000000	0.753634	1	0	0	0	CorrectOmission	1.377579	0.634408	1	0	41
17.314072	1.279746	city	8	1	0.766108	0.766108	0	1	0	0	CorrectCommission	1.333276	0.619894	1	0	41
18.600367	1.292840	city	4	1	1.117006	1.117006	0	1	0	0	CorrectCommission	0.086978	0.610204	1	0	41
19.886509	1.279445	city	3	1	1.234022	1.234022	0	1	0	0	CorrectCommission	0.328630	0.604683	1	0	41
21.166105	1.279749	city	4	1	1.181936	1.181936	0	1	0	0	CorrectCommission	0.143634	0.602431	1	0	41
22.445789	1.279620	city	3	1	1.019960	1.019960	0	1	0	0	CorrectCommission	0.431659	0.602313	1	0	41
23.725365	1.279528	city	4	1	1.123445	1.123445	0	1	0	0	CorrectCommission	0.064109	0.602996	1	0	41
25.004883	1.279510	city	8	1	0.814208	0.814208	0	1	0	0	CorrectCommission	1.162438	0.603005	1	0	41
26.284472	1.279667	mountain	1	0	0.000000	1.130502	1	0	0	0	CorrectOmission	0.039045	0.600853	1	0	41
27.564089	1.279566	city	8	1	1.554052	1.554052	0	1	0	0	CorrectCommission	1.465292	0.595290	1	0	41
28.850311	1.292879	city	6	1	1.566583	1.566583	0	1	0	0	CorrectCommission	1.509800	0.585443	1	0	41
30.136532	1.279563	city	1	1	1.231002	1.231002	0	1	0	0	CorrectCommission	0.317906	0.571125	1	0	41
31.416080	1.279533	city	4	1	1.345005	1.345005	0	1	0	0	CorrectCommission	0.722815	0.552903	1	0	41
32.695610	1.279524	city	8	1	1.262178	1.262178	0	1	0	0	CorrectCommission	0.428633	0.532096	1	0	41
33.988560	1.306375	city	7	1	1.258975	1.258975	0	1	0	0	CorrectCommission	0.417259	0.510773	1	0	41
35.281464	1.279434	city	6	1	1.079405	1.079405	0	1	0	0	CorrectCommission	0.220529	0.491618	1	0	41
36.561001	1.279641	city	7	1	0.983276	0.983276	0	1	0	0	CorrectCommission	0.561951	0.477671	1	0	41
37.840618	1.279597	city	6	1	1.239890	1.239890	0	1	0	0	CorrectCommission	0.349473	0.472020	1	0	41
39.120224	1.279610	city	7	1	1.035021	1.035021	0	1	0	0	CorrectCommission	0.378169	0.477518	1	0	41
40.399765	1.279479	mountain	9	0	0.000000	1.103296	1	0	0	0	CorrectOmission	0.135672	0.496375	1	0	41
41.686028	1.293042	city	8	1	1.190272	1.190272	0	1	0	0	CorrectCommission	0.173242	0.529889	1	0	41
42.972370	1.279639	city	2	1	1.041502	1.041502	0	1	0	0	CorrectCommission	0.355150	0.578187	1	0	41
44.258621	1.292864	city	7	1	1.150561	1.150561	0	1	0	0	CorrectCommission	0.032200	0.640064	1	0	41
45.544781	1.279461	city	1	1	1.083285	1.083285	0	1	0	0	CorrectCommission	0.206747	0.713015	1	0	41
46.830971	1.292913	city	9	1	1.031054	1.031054	0	1	0	0	CorrectCommission	0.392256	0.793412	0	0	41
48.117184	1.279517	city	5	1	0.909707	0.909707	0	1	0	0	CorrectCommission	0.823250	0.876850	0	0	41
49.443466	1.373051	city	9	1	1.003797	1.003797	0	1	0	0	CorrectCommission	0.489068	0.958626	0	0	41
50.776390	1.292794	city	2	1	0.618759	0.618759	0	1	0	0	CorrectCommission	1.856621	1.034275	0	0	41
52.062641	1.279704	city	4	1	0.501137	0.501137	0	1	0	0	CorrectCommission	2.274384	1.100076	0	0	41
53.342285	1.279588	city	5	1	1.606689	1.606689	0	1	0	0	CorrectCommission	1.652246	1.153433	0	0	41
54.621849	1.279537	city	6	1	1.956735	1.956735	0	1	0	0	CorrectCommission	2.895517	1.193090	0	0	41
55.908092	1.292956	city	3	0	0.000000	1.671823	0	0	0	1	OmissionError	1.883586	1.218979	0	0	41
57.194359	1.279573	city	1	1	1.238191	1.238191	0	1	0	0	CorrectCommission	0.343438	1.232015	0	0	41
57.834145	8.463698	break	0	0	0.000000	1.142075	0	0	0	0	ThoughtProbe	0.002060	1.233683	0	41	41
66.937714	1.279743	city	7	1	1.242991	1.242991	0	1	0	0	CorrectCommission	0.360487	1.225570	0	0	4.080000e+01
68.217377	1.279579	mountain	3	0	0.000000	1.400452	1	0	0	0	CorrectOmission	0.919749	1.209088	0	0	4.060000e+01
69.503624	1.292926	city	8	1	1.617498	1.617498	0	1	0	0	CorrectCommission	1.690637	1.185343	0	0	4.040000e+01
70.789879	1.279581	city	4	1	1.897166	1.897166	0	1	0	0	CorrectCommission	2.683944	1.155179	0	0	4.020000e+01
72.069427	1.279516	city	8	0	0.000000	1.441417	0	0	0	1	OmissionError	1.065244	1.119359	0	0	40
73.349007	1.279646	city	1	1	0.821452	0.821452	0	1	0	0	CorrectCommission	1.136708	1.078859	0	0	3.980000e+01
74.628563	1.279463	mountain	8	1	0.608473	0.608473	0	0	1	0	CommissionError	1.893154	1.034963	0	0	3.960000e+01
75.908142	1.279699	city	7	1	0.857639	0.857639	0	1	0	0	CorrectCommission	1.008183	0.989363	0	0	3.940000e+01
77.201050	1.306114	city	5	1	1.018184	1.018184	0	1	0	0	CorrectCommission	0.437968	0.944083	0	0	3.920000e+01
78.500618	1.293020	city	9	1	1.089952	1.089952	0	1	0	0	CorrectCommission	0.183067	0.901236	0	0	39
79.813568	1.332877	city	10	1	0.942102	0.942102	0	1	0	0	CorrectCommission	0.708190	0.862752	0	0	3.880000e+01
81.119804	1.279601	city	7	1	1.423433	1.423433	0	1	0	0	CorrectCommission	1.001369	0.830074	0	0	3.860000e+01
82.399384	1.279553	city	1	1	1.124296	1.124296	0	1	0	0	CorrectCommission	0.061086	0.803945	0	0	3.840000e+01
83.692291	1.306268	city	8	1	0.921384	0.921384	0	1	0	0	CorrectCommission	0.781778	0.784319	0	0	3.820000e+01
84.998459	1.306058	city	9	1	0.983863	0.983863	0	1	0	0	CorrectCommission	0.559867	0.770331	0	0	38
86.291344	1.279712	city	3	1	1.034417	1.034417	0	1	0	0	CorrectCommission	0.380313	0.760477	1	0	3.780000e+01
87.584351	1.306305	city	8	1	0.719414	0.719414	0	1	0	0	CorrectCommission	1.499123	0.752840	1	0	3.760000e+01
88.890640	1.306275	city	1	1	0.832324	0.832324	0	1	0	0	CorrectCommission	1.098094	0.745365	1	0	3.740000e+01
90.196846	1.306144	city	2	1	0.944282	0.944282	0	1	0	0	CorrectCommission	0.700447	0.736163	1	0	3.720000e+01
91.496330	1.292825	city	9	1	0.981721	0.981721	0	1	0	0	CorrectCommission	0.567474	0.723750	1	0	37
92.795921	1.306348	city	2	1	0.897903	0.897903	0	1	0	0	CorrectCommission	0.865176	0.707219	1	0	3.680000e+01
94.088882	1.279584	city	1	1	0.809014	0.809014	0	1	0	0	CorrectCommission	1.180884	0.686295	1	0	3.660000e+01
95.368462	1.279564	city	7	1	0.937636	0.937636	0	1	0	0	CorrectCommission	0.724055	0.661340	1	0	3.640000e+01
96.648033	1.279591	city	1	1	1.032522	1.032522	0	1	0	0	CorrectCommission	0.387045	0.633306	1	0	3.620000e+01
97.927528	1.279393	mountain	10	0	0.000000	1.055392	1	0	0	0	CorrectOmission	0.305815	0.603580	1	0	36
99.227013	1.319580	city	7	1	0.977795	0.977795	0	1	0	0	CorrectCommission	0.581419	0.573822	1	0	3.580000e+01
100.533333	1.293055	city	5	1	0.771279	0.771279	0	1	0	0	CorrectCommission	1.314911	0.545847	1	0	3.560000e+01
101.819664	1.279602	city	9	1	1.070963	1.070963	0	1	0	0	CorrectCommission	0.250510	0.521420	1	0	3.540000e+01
103.112511	1.306098	city	7	1	1.100356	1.100356	0	1	0	0	CorrectCommission	0.146116	0.502144	1	0	3.520000e+01
104.418793	1.306462	city	9	1	1.127474	1.127474	0	1	0	0	CorrectCommission	0.049798	0.489273	1	0	35
105.731705	1.319367	city	2	1	1.019922	1.019922	0	1	0	0	CorrectCommission	0.431796	0.483595	1	0	3.480000e+01
107.031235	1.279689	city	10	1	1.192403	1.192403	0	1	0	0	CorrectCommission	0.180811	0.485372	1	0	3.460000e+01
108.310844	1.279534	city	6	1	1.296410	1.296410	0	1	0	0	CorrectCommission	0.550218	0.494324	1	0	3.440000e+01
109.610420	1.319610	city	8	1	1.138334	1.138334	0	1	0	0	CorrectCommission	0.011228	0.509663	1	0	3.420000e+01
110.916672	1.292902	city	7	1	0.983810	0.983810	0	1	0	0	CorrectCommission	0.560054	0.530257	1	0	34
112.202896	1.279542	city	10	1	0.872739	0.872739	0	1	0	0	CorrectCommission	0.954550	0.554660	1	0	3.380000e+01
113.495743	1.306152	city	2	1	0.942344	0.942344	0	1	0	0	CorrectCommission	0.707332	0.581343	1	0	3.360000e+01
114.808617	1.319587	city	8	1	1.004043	1.004043	0	1	0	0	CorrectCommission	0.488193	0.608844	1	0	3.340000e+01
116.108253	1.279689	city	3	1	0.981277	0.981277	0	1	0	0	CorrectCommission	0.569054	0.635867	1	0	3.320000e+01
119.387238	5.278279	break	0	1	0.981487	0.981487	0	0	0	0	ThoughtProbe	0.568308	0.661391	1	33	33
122.666153	1.279562	city	6	1	1.303447	1.303447	0	1	0	0	CorrectCommission	0.575210	0.684696	1	0	3.315000e+01
123.945702	1.279530	city	7	1	0.872441	0.872441	0	1	0	0	CorrectCommission	0.955608	0.705392	1	0	3.330000e+01
125.225204	1.279484	city	5	1	1.625777	1.625777	0	1	0	0	CorrectCommission	1.720042	0.723307	1	0	3.345000e+01
126.504776	1.279660	city	9	1	1.390383	1.390383	0	1	0	0	CorrectCommission	0.883983	0.738419	1	0	3.360000e+01
127.784424	1.279633	city	10	1	1.178405	1.178405	0	1	0	0	CorrectCommission	0.131095	0.750798	1	0	3.375000e+01
129.064026	1.279552	city	8	1	1.176990	1.176990	0	1	0	0	CorrectCommission	0.126068	0.760466	1	0	3.390000e+01
130.343613	1.279639	city	1	1	1.087999	1.087999	0	1	0	0	CorrectCommission	0.190002	0.767350	1	0	3.405000e+01
131.623215	1.279553	city	5	1	0.770401	0.770401	0	1	0	0	CorrectCommission	1.318027	0.771285	0	0	3.420000e+01
132.902771	1.279568	city	4	1	1.611847	1.611847	0	1	0	0	CorrectCommission	1.670568	0.772036	0	0	3.435000e+01
134.182266	1.279436	city	1	1	1.337598	1.337598	0	1	0	0	CorrectCommission	0.696508	0.769488	1	0	3.450000e+01
135.461777	1.279575	city	8	1	1.337615	1.337615	0	1	0	0	CorrectCommission	0.696568	0.763757	1	0	3.465000e+01
136.741440	1.279762	city	9	1	1.015978	1.015978	0	1	0	0	CorrectCommission	0.445805	0.755270	1	0	3.480000e+01
138.021103	1.279560	mountain	9	1	0.804459	0.804459	0	0	1	0	CommissionError	1.197063	0.744828	1	0	3.495000e+01
139.300613	1.279457	mountain	2	1	0.642328	0.642328	0	0	1	0	CommissionError	1.772912	0.733567	1	0	3.510000e+01
140.580185	1.279687	city	2	1	1.122344	1.122344	0	1	0	0	CorrectCommission	0.068021	0.722846	1	0	3.525000e+01
141.859741	1.279425	city	9	1	1.177450	1.177450	0	1	0	0	CorrectCommission	0.127702	0.714166	1	0	3.540000e+01
143.139328	1.279741	city	1	1	1.151014	1.151014	0	1	0	0	CorrectCommission	0.033810	0.708883	1	0	3.555000e+01
144.418976	1.279575	city	7	1	0.926854	0.926854	0	1	0	0	CorrectCommission	0.762349	0.708095	1	0	3.570000e+01
145.698578	1.279612	city	1	1	0.808372	0.808372	0	1	0	0	CorrectCommission	1.183164	0.712499	1	0	3.585000e+01
146.978088	1.279419	city	9	1	1.070723	1.070723	0	1	0	0	CorrectCommission	0.251363	0.722320	1	0	36
148.257660	1.279726	mountain	2	1	0.695820	0.695820	0	0	1	0	CommissionError	1.582920	0.737333	1	0	3.615000e+01
149.537216	1.279386	city	2	1	1.121711	1.121711	0	1	0	0	CorrectCommission	0.070267	0.756816	1	0	3.630000e+01
150.816788	1.279741	city	7	1	1.070519	1.070519	0	1	0	0	CorrectCommission	0.252089	0.779741	0	0	3.645000e+01
152.096436	1.279576	city	8	1	0.964183	0.964183	0	1	0	0	CorrectCommission	0.629767	0.804800	0	0	3.660000e+01
153.376022	1.279574	city	3	1	0.964439	0.964439	0	1	0	0	CorrectCommission	0.628858	0.830568	0	0	3.675000e+01
154.655624	1.279637	city	2	1	0.661704	0.661704	0	1	0	0	CorrectCommission	1.704093	0.855676	0	0	3.690000e+01
155.935181	1.279478	city	3	1	0.695760	0.695760	0	1	0	0	CorrectCommission	1.583134	0.878895	0	0	3.705000e+01
157.214752	1.279654	city	4	1	0.915368	0.915368	0	1	0	0	CorrectCommission	0.803144	0.899247	0	0	3.720000e+01
158.494278	1.279406	city	3	1	1.347960	1.347960	0	1	0	0	CorrectCommission	0.733311	0.916045	0	0	3.735000e+01
159.773849	1.279752	city	2	1	1.292698	1.292698	0	1	0	0	CorrectCommission	0.537033	0.928846	0	0	3.750000e+01
161.053467	1.279481	city	5	1	1.390876	1.390876	0	1	0	0	CorrectCommission	0.885736	0.937449	0	0	3.765000e+01
162.333054	1.279677	city	2	1	1.496768	1.496768	0	1	0	0	CorrectCommission	1.261838	0.941859	0	0	3.780000e+01
163.612686	1.279578	city	7	1	1.499584	1.499584	0	1	0	0	CorrectCommission	1.271839	0.942229	0	0	3.795000e+01
164.892258	1.279566	city	5	1	1.334773	1.334773	0	1	0	0	CorrectCommission	0.686473	0.938858	0	0	3.810000e+01
166.171738	1.279403	city	9	1	1.424582	1.424582	0	1	0	0	CorrectCommission	1.005450	0.932164	0	0	3.825000e+01
167.451233	1.279604	city	1	1	1.390436	1.390436	0	1	0	0	CorrectCommission	0.884172	0.922655	0	0	3.840000e+01
168.730896	1.279719	city	6	1	1.498296	1.498296	0	1	0	0	CorrectCommission	1.267262	0.910972	0	0	3.855000e+01
170.010559	1.279582	city	1	1	1.495455	1.495455	0	1	0	0	CorrectCommission	1.257174	0.897790	0	0	3.870000e+01
171.290054	1.279415	city	2	1	1.281375	1.281375	0	1	0	0	CorrectCommission	0.496817	0.883811	0	0	3.885000e+01
171.929764	8.983870	break	0	0	0.000000	1.370650	0	0	0	0	ThoughtProbe	0.813899	0.869696	0	39	39
181.553360	1.279468	city	8	1	1.390533	1.390533	0	1	0	0	CorrectCommission	0.884518	0.855963	0	0	3.950000e+01
182.832886	1.279575	city	2	1	0.968276	0.968276	0	1	0	0	CorrectCommission	0.615229	0.842996	0	0	40
184.112518	1.279702	mountain	6	0	0.000000	1.066617	1	0	0	0	CorrectOmission	0.265949	0.830982	0	0	4.050000e+01
185.392151	1.279571	city	3	1	1.345746	1.345746	0	1	0	0	CorrectCommission	0.725446	0.819971	0	0	41
186.671753	1.279606	city	7	1	1.465855	1.465855	0	1	0	0	CorrectCommission	1.152042	0.809872	0	0	4.150000e+01
187.951324	1.279543	city	6	1	1.550809	1.550809	0	1	0	0	CorrectCommission	1.453776	0.800509	0	0	42
189.230820	1.279445	city	5	1	1.465723	1.465723	0	1	0	0	CorrectCommission	1.151574	0.791665	0	0	4.250000e+01
190.510391	1.279703	city	8	1	1.389021	1.389021	0	1	0	0	CorrectCommission	0.879147	0.783060	0	0	43
191.790024	1.279579	city	6	1	1.175654	1.175654	0	1	0	0	CorrectCommission	0.121324	0.774336	0	0	4.350000e+01
193.069611	1.279594	city	7	1	1.070365	1.070365	0	1	0	0	CorrectCommission	0.252633	0.765049	1	0	44
194.349197	1.279556	city	6	1	1.293820	1.293820	0	1	0	0	CorrectCommission	0.541018	0.754630	1	0	4.450000e+01
195.628784	1.279637	city	9	1	1.337357	1.337357	0	1	0	0	CorrectCommission	0.695652	0.742458	1	0	45
196.908386	1.279558	city	1	1	1.405610	1.405610	0	1	0	0	CorrectCommission	0.938069	0.727968	1	0	4.550000e+01
198.187866	1.279411	city	6	1	1.390457	1.390457	0	1	0	0	CorrectCommission	0.884246	0.710803	1	0	46
199.467438	1.279712	mountain	8	0	0.000000	1.554314	1	0	0	0	CorrectOmission	1.466223	0.690987	1	0	4.650000e+01
200.747086	1.279608	city	5	1	1.559569	1.559569	0	1	0	0	CorrectCommission	1.484889	0.669046	1	0	47
202.026688	1.279594	city	8	1	1.068610	1.068610	0	1	0	0	CorrectCommission	0.258867	0.645985	1	0	4.750000e+01
203.306274	1.279572	city	3	1	1.068544	1.068544	0	1	0	0	CorrectCommission	0.259103	0.623295	1	0	48
204.585846	1.279574	city	2	1	1.017506	1.017506	0	1	0	0	CorrectCommission	0.440377	0.602729	1	0	4.850000e+01
205.865417	1.279552	city	3	1	1.070397	1.070397	0	1	0	0	CorrectCommission	0.252523	0.586090	1	0	49
207.145004	1.279643	city	5	1	1.017020	1.017020	0	1	0	0	CorrectCommission	0.442102	0.575032	1	0	4.950000e+01
208.424606	1.279559	city	6	1	1.089423	1.089423	0	1	0	0	CorrectCommission	0.184945	0.570853	1	0	50
209.704147	1.279514	city	7	1	1.034096	1.034096	0	1	0	0	CorrectCommission	0.381453	0.574411	1	0	5.050000e+01
210.983643	1.279476	city	3	1	1.019949	1.019949	0	1	0	0	CorrectCommission	0.431698	0.586039	1	0	51
212.263260	1.279769	city	6	1	0.964136	0.964136	0	1	0	0	CorrectCommission	0.629933	0.605610	1	0	5.150000e+01
213.542923	1.279552	city	7	1	0.857136	0.857136	0	1	0	0	CorrectCommission	1.009969	0.632567	1	0	52
214.822464	1.279514	city	6	1	0.972163	0.972163	0	1	0	0	CorrectCommission	0.601422	0.665957	1	0	5.250000e+01
216.102036	1.279641	city	7	1	1.017123	1.017123	0	1	0	0	CorrectCommission	0.441738	0.704544	1	0	53
217.381653	1.279588	city	4	1	0.941527	0.941527	0	1	0	0	CorrectCommission	0.710234	0.746840	1	0	5.350000e+01
218.661148	1.279395	city	10	1	0.964103	0.964103	0	1	0	0	CorrectCommission	0.630050	0.791114	0	0	54
219.940704	1.279738	city	3	1	0.911411	0.911411	0	1	0	0	CorrectCommission	0.817198	0.835463	0	0	5.450000e+01
221.220337	1.279508	city	2	1	0.963629	0.963629	0	1	0	0	CorrectCommission	0.631732	0.877873	0	0	55
222.499847	1.279525	city	9	1	0.986849	0.986849	0	1	0	0	CorrectCommission	0.549262	0.916329	0	0	5.550000e+01
226.505203	6.731169	break	0	0	0.000000	1.510186	0	0	0	0	ThoughtProbe	1.309493	0.948989	0	56	56
230.510529	1.279499	city	6	1	1.826480	1.826480	0	1	0	0	CorrectCommission	2.432887	0.974318	0	0	5.554348e+01
231.790100	1.279624	city	8	1	1.228572	1.228572	0	1	0	0	CorrectCommission	0.309273	0.991254	0	0	5.508696e+01
233.069763	1.279702	city	2	1	0.804498	0.804498	0	1	0	0	CorrectCommission	1.196924	0.999396	0	0	5.463043e+01
234.349335	1.279460	city	3	1	1.727492	1.727492	0	1	0	0	CorrectCommission	2.081306	0.998905	0	0	5.417391e+01
235.628906	1.279682	city	9	1	1.528375	1.528375	0	1	0	0	CorrectCommission	1.374098	0.990527	0	0	5.371739e+01
236.908539	1.279583	city	1	1	1.230268	1.230268	0	1	0	0	CorrectCommission	0.315299	0.975456	0	0	5.326087e+01
238.188126	1.279600	city	2	1	1.123680	1.123680	0	1	0	0	CorrectCommission	0.063274	0.955150	0	0	5.280435e+01
239.467651	1.279449	mountain	4	1	0.826477	0.826477	0	0	1	0	CommissionError	1.118862	0.931091	0	0	5.234783e+01
240.747238	1.279708	city	5	1	0.976330	0.976330	0	1	0	0	CorrectCommission	0.586623	0.904644	0	0	5.189130e+01
242.026886	1.279582	city	3	1	0.697507	0.697507	0	1	0	0	CorrectCommission	1.576928	0.876979	0	0	5.143478e+01
243.306442	1.279537	city	2	1	1.655034	1.655034	0	1	0	0	CorrectCommission	1.823956	0.848998	0	0	5.097826e+01
244.585938	1.279445	city	7	1	1.143658	1.143658	0	1	0	0	CorrectCommission	0.007683	0.821332	0	0	5.052174e+01
245.865524	1.279732	mountain	10	0	0.000000	1.222573	1	0	0	0	CorrectOmission	0.287967	0.794426	0	0	5.006522e+01
247.145126	1.279490	city	1	1	1.441986	1.441986	0	1	0	0	CorrectCommission	1.067266	0.768494	1	0	4.960870e+01
248.424713	1.279684	mountain	7	0	0.000000	1.352107	1	0	0	0	CorrectOmission	0.748038	0.743624	1	0	4.915217e+01
249.704300	1.279475	city	2	1	1.230630	1.230630	0	1	0	0	CorrectCommission	0.316585	0.719864	1	0	4.869565e+01
250.983795	1.279529	city	6	1	1.355252	1.355252	0	1	0	0	CorrectCommission	0.759207	0.697251	1	0	4.823913e+01
252.263412	1.279688	city	5	1	1.230281	1.230281	0	1	0	0	CorrectCommission	0.315345	0.675864	1	0	4.778261e+01
253.543030	1.279562	city	4	1	1.603516	1.603516	0	1	0	0	CorrectCommission	1.640976	0.655859	1	0	4.732609e+01
254.822556	1.279484	city	6	0	0.000000	1.470632	0	0	0	1	OmissionError	1.169009	0.637437	1	0	4.686957e+01
256.102142	1.279698	city	8	1	1.177155	1.177155	0	1	0	0	CorrectCommission	0.126654	0.620846	1	0	4.641304e+01
257.381805	1.279601	city	3	1	1.068607	1.068607	0	1	0	0	CorrectCommission	0.258880	0.606283	1	0	4.595652e+01
258.661530	1.279841	city	10	1	1.192492	1.192492	0	1	0	0	CorrectCommission	0.181129	0.593751	1	0	4.550000e+01
259.941040	1.279174	city	4	1	1.179423	1.179423	0	1	0	0	CorrectCommission	0.134710	0.583094	1	0	4.504348e+01
261.220490	1.279750	city	5	1	1.068982	1.068982	0	1	0	0	CorrectCommission	0.257548	0.573931	1	0	4.458696e+01
262.500122	1.279529	city	6	1	1.580531	1.580531	0	1	0	0	CorrectCommission	1.559340	0.565704	1	0	4.413043e+01
263.779633	1.279494	city	7	0	0.000000	1.235729	0	0	0	1	OmissionError	0.334694	0.557799	1	0	4.367391e+01
265.059265	1.279778	city	8	1	0.823697	0.823697	0	1	0	0	CorrectCommission	1.128734	0.549753	1	0	4.321739e+01
266.338898	1.279479	mountain	1	0	0.000000	1.133558	1	0	0	0	CorrectOmission	0.028191	0.541251	1	0	4.276087e+01
267.618439	1.279614	city	3	1	1.495560	1.495560	0	1	0	0	CorrectCommission	1.257547	0.532280	1	0	4.230435e+01
268.898041	1.279549	city	5	1	1.239955	1.239955	0	1	0	0	CorrectCommission	0.349703	0.523121	1	0	4.184783e+01
270.177521	1.279421	city	1	1	1.192785	1.192785	0	1	0	0	CorrectCommission	0.182169	0.514365	1	0	4.139130e+01
271.457092	1.279759	city	9	1	1.177641	1.177641	0	1	0	0	CorrectCommission	0.128381	0.506791	1	0	4.093478e+01
272.736786	1.279575	city	1	1	1.018179	1.018179	0	1	0	0	CorrectCommission	0.437986	0.501319	1	0	4.047826e+01
274.016357	1.279586	city	3	1	0.920267	0.920267	0	1	0	0	CorrectCommission	0.785743	0.498875	1	0	4.002174e+01
275.295898	1.279516	city	6	1	1.015280	1.015280	0	1	0	0	CorrectCommission	0.448284	0.500259	1	0	3.956522e+01
276.575409	1.279517	city	1	1	0.910957	0.910957	0	1	0	0	CorrectCommission	0.818811	0.506082	1	0	3.910870e+01
277.855042	1.279701	city	3	1	1.121732	1.121732	0	1	0	0	CorrectCommission	0.070195	0.516665	1	0	3.865217e+01
279.134674	1.279577	city	9	1	1.017040	1.017040	0	1	0	0	CorrectCommission	0.442031	0.531989	1	0	3.819565e+01
280.414215	1.279539	city	8	1	1.068499	1.068499	0	1	0	0	CorrectCommission	0.259264	0.551642	1	0	3.773913e+01
281.693787	1.279601	city	3	1	1.017715	1.017715	0	1	0	0	CorrectCommission	0.439634	0.574838	1	0	3.728261e+01
282.973389	1.279596	city	2	1	1.016998	1.016998	0	1	0	0	CorrectCommission	0.442181	0.600466	1	0	3.682609e+01
284.252899	1.279399	city	9	1	1.336938	1.336938	0	1	0	0	CorrectCommission	0.694163	0.627239	1	0	3.636957e+01
285.532471	1.279726	city	10	1	1.337121	1.337121	0	1	0	0	CorrectCommission	0.694813	0.653856	1	0	3.591304e+01
286.812042	1.279451	city	1	1	1.230901	1.230901	0	1	0	0	CorrectCommission	0.317547	0.679189	1	0	3.545652e+01
290.704102	6.504651	break	0	0	0.000000	1.513782	0	0	0	0	ThoughtProbe	1.322265	0.702439	1	35	35
294.596161	1.279458	city	9	1	1.707915	1.707915	0	1	0	0	CorrectCommission	2.011776	0.723255	1	0	3.505882e+01
295.875763	1.279739	city	6	1	1.335455	1.335455	0	1	0	0	CorrectCommission	0.688894	0.741740	1	0	3.511765e+01
297.155426	1.279630	city	2	1	1.124500	1.124500	0	1	0	0	CorrectCommission	0.060360	0.758477	1	0	3.517647e+01
298.434967	1.279445	city	4	1	1.262303	1.262303	0	1	0	0	CorrectCommission	0.429078	0.774304	0	0	3.523529e+01
299.714508	1.279662	city	10	1	0.996654	0.996654	0	1	0	0	CorrectCommission	0.514438	0.790149	0	0	3.529412e+01
300.994141	1.279569	city	1	1	0.981963	0.981963	0	1	0	0	CorrectCommission	0.566614	0.806841	0	0	3.535294e+01
302.273712	1.279589	city	5	1	0.870173	0.870173	0	1	0	0	CorrectCommission	0.963665	0.824965	0	0	3.541176e+01
303.553345	1.279638	mountain	2	1	0.649328	0.649328	0	0	1	0	CommissionError	1.748050	0.844702	0	0	3.547059e+01
304.832916	1.279522	city	10	1	0.921341	0.921341	0	1	0	0	CorrectCommission	0.781928	0.865769	0	0	3.552941e+01
306.112488	1.279602	city	9	1	1.070272	1.070272	0	1	0	0	CorrectCommission	0.252966	0.887448	0	0	3.558824e+01
307.392029	1.279533	city	6	1	1.018055	1.018055	0	1	0	0	CorrectCommission	0.438426	0.908586	0	0	3.564706e+01
308.671600	1.279606	city	7	1	0.916204	0.916204	0	1	0	0	CorrectCommission	0.800175	0.927714	0	0	3.570588e+01
309.951202	1.279557	city	9	1	0.762968	0.762968	0	1	0	0	CorrectCommission	1.344429	0.943190	0	0	3.576471e+01
311.230682	1.279443	city	10	1	0.644139	0.644139	0	1	0	0	CorrectCommission	1.766477	0.953395	0	0	3.582353e+01
312.510284	1.279730	city	3	1	0.869986	0.869986	0	1	0	0	CorrectCommission	0.964330	0.956910	0	0	3.588235e+01
313.789856	1.279415	city	2	1	1.022055	1.022055	0	1	0	0	CorrectCommission	0.424221	0.952746	0	0	3.594118e+01
315.069427	1.279749	city	1	1	1.565780	1.565780	0	1	0	0	CorrectCommission	1.506947	0.940448	0	0	36
316.349091	1.279552	city	8	1	1.669807	1.669807	0	1	0	0	CorrectCommission	1.876424	0.920137	0	0	3.605882e+01
317.628571	1.279425	city	6	0	0.000000	1.236851	0	0	0	1	OmissionError	0.338680	0.892560	0	0	3.611765e+01
318.908173	1.279775	city	1	1	0.804480	0.804480	0	1	0	0	CorrectCommission	1.196989	0.859049	0	0	3.617647e+01
320.187836	1.279542	city	5	1	0.910258	0.910258	0	1	0	0	CorrectCommission	0.821293	0.821337	0	0	3.623529e+01
321.467407	1.279588	city	9	1	0.961680	0.961680	0	1	0	0	CorrectCommission	0.638656	0.781428	0	0	3.629412e+01
322.746918	1.279444	city	7	1	0.944900	0.944900	0	1	0	0	CorrectCommission	0.698255	0.741401	1	0	3.635294e+01
324.026489	1.279720	mountain	4	0	0.000000	1.095217	1	0	0	0	CorrectOmission	0.164366	0.703313	1	0	3.641176e+01
325.306152	1.279574	city	6	1	1.302154	1.302154	0	1	0	0	CorrectCommission	0.570617	0.669108	1	0	3.647059e+01
326.585632	1.279405	city	9	1	1.455229	1.455229	0	1	0	0	CorrectCommission	1.114301	0.640524	1	0	3.652941e+01
327.865204	1.279749	city	7	1	1.249382	1.249382	0	1	0	0	CorrectCommission	0.383186	0.619070	1	0	3.658824e+01
329.144897	1.279607	city	3	1	1.017342	1.017342	0	1	0	0	CorrectCommission	0.440958	0.606048	1	0	3.664706e+01
330.424438	1.279500	city	4	1	1.046030	1.046030	0	1	0	0	CorrectCommission	0.339067	0.602492	1	0	3.670588e+01
331.704010	1.279618	city	5	1	1.034441	1.034441	0	1	0	0	CorrectCommission	0.380228	0.609119	1	0	3.676471e+01
332.983612	1.279597	city	9	1	1.034698	1.034698	0	1	0	0	CorrectCommission	0.379315	0.626252	1	0	3.682353e+01
334.263214	1.279601	city	3	1	0.915992	0.915992	0	1	0	0	CorrectCommission	0.800926	0.653760	1	0	3.688235e+01
335.542786	1.279562	city	5	1	0.963826	0.963826	0	1	0	0	CorrectCommission	0.631033	0.690882	1	0	3.694118e+01
336.182556	8.090629	break	0	0	0.000000	1.237345	0	0	0	0	ThoughtProbe	0.340434	0.736194	1	37	37
344.932922	1.319449	city	9	1	1.355638	1.355638	0	1	0	0	CorrectCommission	0.760580	0.787549	0	0	3.791176e+01
346.239166	1.293047	city	2	1	0.937794	0.937794	0	1	0	0	CorrectCommission	0.723491	0.842109	0	0	3.882353e+01
347.525513	1.279622	city	3	1	1.206959	1.206959	0	1	0	0	CorrectCommission	0.232513	0.896528	0	0	3.973529e+01
348.811768	1.292882	city	2	1	1.139490	1.139490	0	1	0	0	CorrectCommission	0.007123	0.947232	0	0	4.064706e+01
350.097992	1.279581	city	7	1	1.473362	1.473362	0	1	0	0	CorrectCommission	1.178703	0.990761	0	0	4.155882e+01
351.397552	1.319563	city	10	1	2.032140	2.032140	0	1	0	0	CorrectCommission	3.163337	1.024131	0	0	4.247059e+01
352.697113	1.279566	mountain	8	0	0.000000	1.903632	1	0	0	0	CorrectOmission	2.706909	1.045206	0	0	4.338235e+01
353.976715	1.279594	city	4	1	1.514966	1.514966	0	1	0	0	CorrectCommission	1.326470	1.052979	0	0	4.429412e+01
355.256256	1.279537	city	6	0	0.000000	1.293272	0	0	0	1	OmissionError	0.539071	1.047605	0	0	4.520588e+01
356.542419	1.292780	city	2	1	1.259235	1.259235	0	1	0	0	CorrectCommission	0.418180	1.030291	0	0	4.611765e+01
357.828705	1.279760	city	1	1	1.433541	1.433541	0	1	0	0	CorrectCommission	1.037269	1.003063	0	0	4.702941e+01
359.148285	1.359390	city	10	1	1.312872	1.312872	0	1	0	0	CorrectCommission	0.608686	0.968496	0	0	4.794118e+01
360.467773	1.279618	mountain	10	0	0.000000	1.391098	1	0	0	0	CorrectOmission	0.886525	0.929450	0	0	4.885294e+01
361.747345	1.279520	city	9	1	1.514089	1.514089	0	1	0	0	CorrectCommission	1.323356	0.888777	0	0	4.976471e+01
363.026886	1.279596	city	10	1	1.527713	1.527713	0	1	0	0	CorrectCommission	1.371746	0.849180	0	0	5.067647e+01
364.319885	1.306393	city	5	0	0.000000	1.095932	0	0	0	1	OmissionError	0.161828	0.813044	0	0	5.158824e+01
365.612854	1.279499	city	8	1	0.767700	0.767700	0	1	0	0	CorrectCommission	1.327622	0.782360	0	0	5.250000e+01
366.899078	1.292985	city	9	1	1.091972	1.091972	0	1	0	0	CorrectCommission	0.175893	0.758545	1	0	5.341176e+01
368.185303	1.279439	city	7	1	1.250042	1.250042	0	1	0	0	CorrectCommission	0.385530	0.742424	1	0	5.432353e+01
369.478119	1.306198	city	8	1	1.283852	1.283852	0	1	0	0	CorrectCommission	0.505616	0.734069	1	0	5.523529e+01
370.771027	1.279614	city	6	1	1.367166	1.367166	0	1	0	0	CorrectCommission	0.801523	0.732838	1	0	5.614706e+01
372.070618	1.319592	city	5	1	1.127741	1.127741	0	1	0	0	CorrectCommission	0.048852	0.737427	1	0	5.705882e+01
373.376862	1.292859	city	8	1	1.086391	1.086391	0	1	0	0	CorrectCommission	0.195715	0.746073	1	0	5.797059e+01
374.669769	1.292987	city	2	1	0.831629	0.831629	0	1	0	0	CorrectCommission	1.100562	0.756758	1	0	5.888235e+01
375.956055	1.279550	city	3	1	0.751428	0.751428	0	1	0	0	CorrectCommission	1.385417	0.767518	1	0	5.979412e+01
377.235687	1.279715	city	10	1	1.304015	1.304015	0	1	0	0	CorrectCommission	0.577229	0.776771	0	0	6.070588e+01
378.528625	1.306165	city	3	1	1.577072	1.577072	0	1	0	0	CorrectCommission	1.547055	0.783547	0	0	6.161765e+01
379.821503	1.279603	city	5	1	1.526586	1.526586	0	1	0	0	CorrectCommission	1.367742	0.787532	0	0	6.252941e+01
381.107788	1.292967	city	7	1	1.433423	1.433423	0	1	0	0	CorrectCommission	1.036853	0.789117	0	0	6.344118e+01
382.400635	1.292742	city	1	1	1.314358	1.314358	0	1	0	0	CorrectCommission	0.613963	0.789180	0	0	6.435294e+01
383.686859	1.279681	city	2	1	1.249217	1.249217	0	1	0	0	CorrectCommission	0.382600	0.788771	0	0	6.526471e+01
384.966492	1.279605	city	4	1	1.247984	1.247984	0	1	0	0	CorrectCommission	0.378221	0.788775	0	0	6.617647e+01
386.259338	1.306089	city	2	1	1.167841	1.167841	0	1	0	0	CorrectCommission	0.093575	0.789600	0	0	6.708824e+01
386.912384	12.449367	break	0	0	0.000000	1.265264	0	0	0	0	ThoughtProbe	0.439596	0.791036	0	68	68
400.014862	1.306243	mountain	4	1	1.259763	1.259763	0	0	1	0	CommissionError	0.420056	0.792238	0	0	6.690000e+01
401.347778	1.359559	city	7	1	0.870846	0.870846	0	1	0	0	CorrectCommission	0.961276	0.791908	0	0	6.580000e+01
402.673920	1.292743	city	9	1	0.543440	0.543440	0	1	0	0	CorrectCommission	2.124136	0.788564	0	0	6.470000e+01
403.973511	1.306429	city	8	1	0.624846	0.624846	0	1	0	0	CorrectCommission	1.835003	0.780947	0	0	6.360000e+01
405.286499	1.319531	city	3	1	0.924655	0.924655	0	1	0	0	CorrectCommission	0.770158	0.768250	1	0	6.250000e+01
406.599396	1.306269	city	2	1	1.038625	1.038625	0	1	0	0	CorrectCommission	0.365366	0.750385	1	0	6.140000e+01
407.905640	1.306229	city	5	1	1.142712	1.142712	0	1	0	0	CorrectCommission	0.004321	0.728001	1	0	6.030000e+01
409.205139	1.292780	city	10	1	0.888394	0.888394	0	1	0	0	CorrectCommission	0.898947	0.702463	1	0	5.920000e+01
410.491302	1.279553	mountain	7	1	0.857086	0.857086	0	0	1	0	CommissionError	1.010146	0.675709	1	0	5.810000e+01
411.770966	1.279738	city	1	1	1.353122	1.353122	0	1	0	0	CorrectCommission	0.751642	0.650100	1	0	57
413.070526	1.319381	city	3	1	1.277836	1.277836	0	1	0	0	CorrectCommission	0.484249	0.628171	1	0	5.590000e+01
414.383392	1.306392	city	7	1	1.267095	1.267095	0	1	0	0	CorrectCommission	0.446099	0.612374	1	0	5.480000e+01
415.689728	1.306276	city	5	1	1.220842	1.220842	0	1	0	0	CorrectCommission	0.281819	0.604868	1	0	5.370000e+01
416.982513	1.279262	city	9	1	1.306210	1.306210	0	1	0	0	CorrectCommission	0.585024	0.607352	1	0	5.260000e+01
418.261993	1.279729	city	10	1	1.178141	1.178141	0	1	0	0	CorrectCommission	0.130157	0.620847	1	0	5.150000e+01
419.554993	1.306264	city	2	1	1.196406	1.196406	0	1	0	0	CorrectCommission	0.195028	0.645618	1	0	5.040000e+01
420.847900	1.279539	mountain	10	0	0.000000	1.321785	1	0	0	0	CorrectOmission	0.640343	0.681079	1	0	4.930000e+01
422.127533	1.279748	city	5	1	1.409481	1.409481	0	1	0	0	CorrectCommission	0.951816	0.725812	1	0	4.820000e+01
423.413879	1.292908	city	7	1	1.314695	1.314695	0	1	0	0	CorrectCommission	0.615161	0.777639	0	0	4.710000e+01
424.700104	1.279562	city	3	1	1.267112	1.267112	0	1	0	0	CorrectCommission	0.446160	0.833785	0	0	46
425.979553	1.279351	city	8	1	1.196587	1.196587	0	1	0	0	CorrectCommission	0.195672	0.891104	0	0	4.490000e+01
427.265808	1.293153	city	10	1	1.091426	1.091426	0	1	0	0	CorrectCommission	0.177831	0.946344	0	0	4.380000e+01
428.552124	1.279452	city	1	1	2.001845	2.001845	0	1	0	0	CorrectCommission	3.055737	0.996447	0	0	4.270000e+01
429.871613	1.359519	city	8	1	1.672541	1.672541	0	1	0	0	CorrectCommission	1.886134	1.038754	0	0	4.160000e+01
431.217834	1.332966	city	9	1	1.644411	1.644411	0	1	0	0	CorrectCommission	1.786226	1.071308	0	0	4.050000e+01
432.537506	1.306337	city	1	1	1.326153	1.326153	0	1	0	0	CorrectCommission	0.655856	1.092852	0	0	3.940000e+01
433.830383	1.279457	city	8	1	1.070383	1.070383	0	1	0	0	CorrectCommission	0.252572	1.102879	0	0	3.830000e+01
435.123291	1.306352	city	6	1	0.838607	0.838607	0	1	0	0	CorrectCommission	1.075777	1.101508	0	0	3.720000e+01
436.416168	1.279421	city	2	1	0.609125	0.609125	0	1	0	0	CorrectCommission	1.890839	1.089302	0	0	3.610000e+01
437.709076	1.306393	city	4	1	0.676221	0.676221	0	1	0	0	CorrectCommission	1.652531	1.067156	0	0	35
439.008728	1.292884	city	10	1	0.922165	0.922165	0	1	0	0	CorrectCommission	0.779001	1.036215	0	0	3.390000e+01
440.301544	1.292772	city	5	1	0.969383	0.969383	0	1	0	0	CorrectCommission	0.611296	0.997833	0	0	3.280000e+01
441.587769	1.279627	city	1	1	0.858080	0.858080	0	1	0	0	CorrectCommission	1.006616	0.953510	0	0	3.170000e+01
442.867401	1.279694	city	6	1	0.772631	0.772631	0	1	0	0	CorrectCommission	1.310109	0.904960	0	0	3.060000e+01
444.147034	1.279520	city	3	1	0.820676	0.820676	0	1	0	0	CorrectCommission	1.139465	0.854131	0	0	2.950000e+01
445.433258	1.292948	city	1	1	0.982205	0.982205	0	1	0	0	CorrectCommission	0.565758	0.803197	0	0	2.840000e+01
446.726105	1.292760	city	5	1	0.818490	0.818490	0	1	0	0	CorrectCommission	1.147228	0.754540	1	0	2.730000e+01
448.019012	1.293067	city	4	1	0.953107	0.953107	0	1	0	0	CorrectCommission	0.669106	0.710632	1	0	2.620000e+01
449.311920	1.292760	city	6	1	1.052516	1.052516	0	1	0	0	CorrectCommission	0.316032	0.673908	1	0	2.510000e+01
453.070618	6.224624	break	0	1	1.049898	1.049898	0	0	0	0	ThoughtProbe	0.325330	0.646591	1	24	24
456.836121	1.306384	city	7	1	1.124809	1.124809	0	1	0	0	CorrectCommission	0.059266	0.630522	1	0	2.426087e+01
458.129089	1.279561	city	6	1	1.197633	1.197633	0	1	0	0	CorrectCommission	0.199387	0.627012	1	0	2.452174e+01
459.408691	1.279597	city	5	1	1.034625	1.034625	0	1	0	0	CorrectCommission	0.379573	0.636745	1	0	2.478261e+01
460.714874	1.332769	city	8	1	1.010160	1.010160	0	1	0	0	CorrectCommission	0.466466	0.659783	1	0	2.504348e+01
462.034424	1.306353	city	5	1	1.047275	1.047275	0	1	0	0	CorrectCommission	0.334646	0.695516	1	0	2.530435e+01
463.327393	1.279590	city	8	1	0.927050	0.927050	0	1	0	0	CorrectCommission	0.761651	0.742774	1	0	2.556522e+01
464.606995	1.279576	city	5	1	1.685860	1.685860	0	1	0	0	CorrectCommission	1.933441	0.799838	0	0	2.582609e+01
465.893158	1.292771	city	7	1	1.343973	1.343973	0	1	0	0	CorrectCommission	0.719148	0.864463	0	0	2.608696e+01
467.199310	1.319519	city	2	1	1.058627	1.058627	0	1	0	0	CorrectCommission	0.294325	0.933900	0	0	2.634783e+01
468.498932	1.279730	city	4	1	1.097515	1.097515	0	1	0	0	CorrectCommission	0.156207	1.004870	0	0	2.660870e+01
469.785248	1.292947	mountain	7	1	0.803640	0.803640	0	0	1	0	CommissionError	1.199972	1.073655	0	0	2.686957e+01
471.078094	1.292738	city	2	1	1.055686	1.055686	0	1	0	0	CorrectCommission	0.304772	1.136292	0	0	2.713043e+01
472.371002	1.293054	mountain	2	1	0.574471	0.574471	0	0	1	0	CommissionError	2.013920	1.188950	0	0	2.739130e+01
473.677338	1.319590	city	5	1	0.497919	0.497919	0	1	0	0	CorrectCommission	2.285812	1.228188	0	0	2.765217e+01
474.983490	1.292757	city	8	1	0.657624	0.657624	0	1	0	0	CorrectCommission	1.718581	1.251496	0	0	2.791304e+01
476.289734	1.319714	city	3	1	0.692776	0.692776	0	1	0	0	CorrectCommission	1.593734	1.257687	0	0	2.817391e+01
477.602692	1.306230	city	1	1	1.769877	1.769877	0	1	0	0	CorrectCommission	2.231848	1.247118	0	0	2.843478e+01
478.908844	1.306064	city	8	1	1.594438	1.594438	0	1	0	0	CorrectCommission	1.608734	1.221794	0	0	2.869565e+01
480.208344	1.292907	city	7	1	1.541914	1.541914	0	1	0	0	CorrectCommission	1.422182	1.185195	0	0	2.895652e+01
481.501312	1.293050	city	8	1	1.566854	1.566854	0	1	0	0	CorrectCommission	1.510762	1.141870	0	0	2.921739e+01
482.800964	1.306252	mountain	8	0	0.000000	1.323556	1	0	0	0	CorrectOmission	0.646633	1.096888	0	0	2.947826e+01
484.093811	1.279424	city	10	1	1.133282	1.133282	0	1	0	0	CorrectCommission	0.029170	1.055200	0	0	2.973913e+01
485.406708	1.346375	city	3	1	1.317294	1.317294	0	1	0	0	CorrectCommission	0.624392	1.021002	0	0	30
486.739685	1.319570	city	5	1	1.076272	1.076272	0	1	0	0	CorrectCommission	0.231653	0.997215	0	0	3.026087e+01
488.072479	1.346062	city	2	1	1.125111	1.125111	0	1	0	0	CorrectCommission	0.058193	0.985213	0	0	3.052174e+01
489.398743	1.306413	city	7	1	0.798486	0.798486	0	1	0	0	CorrectCommission	1.218279	0.984718	0	0	3.078261e+01
490.691711	1.279526	city	5	1	0.500431	0.500431	0	1	0	0	CorrectCommission	2.276891	0.993909	0	0	3.104348e+01
491.977936	1.292935	city	3	1	0.936782	0.936782	0	1	0	0	CorrectCommission	0.727087	1.009752	0	0	3.130435e+01
493.264191	1.279589	city	5	1	1.087401	1.087401	0	1	0	0	CorrectCommission	0.192127	1.028469	0	0	3.156522e+01
494.550415	1.292877	city	6	1	1.242704	1.242704	0	1	0	0	CorrectCommission	0.359467	1.046000	0	0	3.182609e+01
495.836609	1.279481	city	10	1	1.547343	1.547343	0	1	0	0	CorrectCommission	1.441465	1.058493	0	0	3.208696e+01
497.142883	1.333049	city	2	1	1.943433	1.943433	0	1	0	0	CorrectCommission	2.848274	1.062728	0	0	3.234783e+01
498.455841	1.292910	city	10	0	0.000000	1.472488	0	0	0	1	OmissionError	1.175601	1.056441	0	0	3.260870e+01
499.755432	1.306234	city	5	1	0.820427	0.820427	0	1	0	0	CorrectCommission	1.140350	1.038629	0	0	3.286957e+01
501.061646	1.306229	mountain	6	1	0.673167	0.673167	0	0	1	0	CommissionError	1.663380	1.009433	0	0	3.313043e+01
502.354553	1.279602	city	8	1	0.980275	0.980275	0	1	0	0	CorrectCommission	0.572612	0.970062	0	0	3.339130e+01
503.640808	1.292894	city	4	1	1.545135	1.545135	0	1	0	0	CorrectCommission	1.433625	0.922615	0	0	3.365217e+01
504.946960	1.319412	city	1	1	1.350495	1.350495	0	1	0	0	CorrectCommission	0.742315	0.869630	0	0	3.391304e+01
506.273224	1.333075	city	4	1	1.095193	1.095193	0	1	0	0	CorrectCommission	0.164452	0.813798	0	0	3.417391e+01
507.599518	1.319543	city	2	1	0.945610	0.945610	0	1	0	0	CorrectCommission	0.695731	0.757600	1	0	3.443478e+01
508.899078	1.279585	city	9	1	0.932175	0.932175	0	1	0	0	CorrectCommission	0.743449	0.702976	1	0	3.469565e+01
510.178650	1.279560	city	4	1	1.037900	1.037900	0	1	0	0	CorrectCommission	0.367942	0.651227	1	0	3.495652e+01
511.484894	1.332884	city	10	1	1.003104	1.003104	0	1	0	0	CorrectCommission	0.491527	0.602934	1	0	3.521739e+01
512.797729	1.292776	city	5	1	0.985686	0.985686	0	1	0	0	CorrectCommission	0.553392	0.557970	1	0	3.547826e+01
514.090637	1.293023	city	2	1	0.941773	0.941773	0	1	0	0	CorrectCommission	0.709360	0.515591	1	0	3.573913e+01
514.737122	8.663938	break	0	0	1.007869	1.007869	0	0	0	0	ThoughtProbe	0.474603	0.474603	1	36	36
