onset	duration	trial_type	image_type	Press	ReactionTime	ReactionTime_Interpolated	CorrectOmission	CorrectCommission	CommissionError	OmissionError	response_type	nonsmoothVarianceTimeCourse	VarianceTimeCourse	In_the_Zone	ThoughtProbe	ThoughtProbe_Interpolated
0.653176	1.279589	city	7	1	1.349448	1.349448	0	1	0	0	CorrectCommission	0.275009	0.275009	1	0	94
1.932722	1.279503	city	2	1	1.282167	1.282167	0	1	0	0	CorrectCommission	0.482126	0.363010	1	0	94
3.212303	1.279659	city	7	1	1.122950	1.122950	0	1	0	0	CorrectCommission	0.972261	0.445610	1	0	94
4.491920	1.279576	city	9	1	1.175551	1.175551	0	1	0	0	CorrectCommission	0.810332	0.517963	1	0	94
5.771478	1.279541	city	8	1	0.962315	0.962315	0	1	0	0	CorrectCommission	1.466761	0.576316	1	0	94
7.051057	1.279617	city	4	1	0.962281	0.962281	0	1	0	0	CorrectCommission	1.466863	0.618285	1	0	94
8.330654	1.279578	city	7	1	1.079944	1.079944	0	1	0	0	CorrectCommission	1.104651	0.643049	1	0	94
9.610238	1.279589	city	4	1	1.231668	1.231668	0	1	0	0	CorrectCommission	0.637581	0.651257	1	0	94
10.889784	1.279502	city	9	1	1.300170	1.300170	0	1	0	0	CorrectCommission	0.426704	0.644807	1	0	94
12.169370	1.279669	city	4	1	1.180675	1.180675	0	1	0	0	CorrectCommission	0.794558	0.626467	1	0	94
13.448984	1.279560	city	9	1	1.151392	1.151392	0	1	0	0	CorrectCommission	0.884703	0.599465	1	0	94
14.728552	1.279576	city	7	1	1.342282	1.342282	0	1	0	0	CorrectCommission	0.297068	0.567103	1	0	94
16.008131	1.279582	mountain	7	0	0.000000	1.395085	1	0	0	0	CorrectOmission	0.134518	0.532451	1	0	94
17.287710	1.279577	mountain	3	0	0.000000	1.361778	1	0	0	0	CorrectOmission	0.237051	0.498089	1	0	94
18.567274	1.279548	city	8	1	1.294336	1.294336	0	1	0	0	CorrectCommission	0.444664	0.466007	1	0	94
19.846865	1.279635	mountain	7	0	0.000000	1.244735	1	0	0	0	CorrectOmission	0.597355	0.437628	1	0	94
21.126459	1.279553	city	10	1	1.247059	1.247059	0	1	0	0	CorrectCommission	0.590202	0.413824	1	0	94
22.406027	1.279582	city	2	1	1.335390	1.335390	0	1	0	0	CorrectCommission	0.318284	0.395065	1	0	94
23.685606	1.279575	city	1	1	1.516300	1.516300	0	1	0	0	CorrectCommission	0.238632	0.381520	1	0	94
24.965185	1.279584	city	2	1	1.448240	1.448240	0	1	0	0	CorrectCommission	0.029114	0.373173	1	0	94
26.244684	1.279416	city	9	1	1.314972	1.314972	0	1	0	0	CorrectCommission	0.381138	0.369886	1	0	94
27.524223	1.279661	city	7	1	1.284363	1.284363	0	1	0	0	CorrectCommission	0.475366	0.371456	1	0	94
28.803881	1.279657	city	6	1	1.442027	1.442027	0	1	0	0	CorrectCommission	0.009990	0.377658	1	0	94
30.083508	1.279594	city	3	1	1.247361	1.247361	0	1	0	0	CorrectCommission	0.589272	0.388277	1	0	94
31.363035	1.279464	city	9	1	1.448067	1.448067	0	1	0	0	CorrectCommission	0.028582	0.403091	1	0	94
32.642605	1.279678	city	3	1	1.661746	1.661746	0	1	0	0	CorrectCommission	0.686373	0.421923	1	0	94
33.922180	1.279471	city	2	1	1.342816	1.342816	0	1	0	0	CorrectCommission	0.295424	0.444577	1	0	94
35.201683	1.279531	city	3	1	1.686188	1.686188	0	1	0	0	CorrectCommission	0.761614	0.470850	1	0	94
36.494690	1.306485	city	10	1	1.289643	1.289643	0	1	0	0	CorrectCommission	0.459112	0.500449	1	0	94
37.794605	1.293344	city	6	1	1.578622	1.578622	0	1	0	0	CorrectCommission	0.430484	0.532977	1	0	94
39.080746	1.278938	city	10	1	1.498308	1.498308	0	1	0	0	CorrectCommission	0.183244	0.567823	1	0	94
40.366722	1.293016	mountain	6	0	0.000000	1.336016	1	0	0	0	CorrectOmission	0.316357	0.604172	1	0	94
41.659618	1.292773	city	2	1	1.321892	1.321892	0	1	0	0	CorrectCommission	0.359836	0.640985	1	0	94
42.945866	1.279724	city	5	1	1.686084	1.686084	0	1	0	0	CorrectCommission	0.761295	0.677060	1	0	94
44.232147	1.292838	city	1	1	0.714376	0.714376	0	1	0	0	CorrectCommission	2.230015	0.711100	1	0	94
45.518387	1.279645	city	5	1	1.515949	1.515949	0	1	0	0	CorrectCommission	0.237551	0.741810	1	0	94
46.811321	1.306221	city	4	1	1.540651	1.540651	0	1	0	0	CorrectCommission	0.313592	0.768091	0	0	94
48.117558	1.306253	city	8	1	1.538799	1.538799	0	1	0	0	CorrectCommission	0.307893	0.789045	0	0	94
49.417141	1.292912	city	9	1	2.050944	2.050944	0	1	0	0	CorrectCommission	1.884483	0.804085	0	0	94
50.710049	1.292907	city	5	1	1.082328	1.082328	0	1	0	0	CorrectCommission	1.097310	0.812933	0	0	94
51.996292	1.279574	city	7	1	1.793270	1.793270	0	1	0	0	CorrectCommission	1.091256	0.815673	0	0	94
53.309189	1.346226	city	8	0	0.000000	1.676874	0	0	0	1	OmissionError	0.732944	0.812677	0	0	94
54.635445	1.306286	city	1	1	1.288755	1.288755	0	1	0	0	CorrectCommission	0.461845	0.804498	0	0	94
55.928356	1.279532	city	4	0	0.000000	1.184524	0	0	0	1	OmissionError	0.782712	0.791836	0	0	94
57.234520	1.332793	city	9	1	1.190333	1.190333	0	1	0	0	CorrectCommission	0.764828	0.775475	0	0	94
61.846317	7.890808	break	0	0	0.000000	1.132336	0	0	0	0	ThoughtProbe	0.943368	0.756250	1	94	94
66.451485	1.319530	city	2	1	1.207914	1.207914	0	1	0	0	CorrectCommission	0.710706	0.735114	1	0	9.376471e+01
67.751083	1.279666	city	6	1	1.614451	1.614451	0	1	0	0	CorrectCommission	0.540781	0.713106	1	0	9.352941e+01
69.050690	1.319545	city	5	1	1.849881	1.849881	0	1	0	0	CorrectCommission	1.265529	0.691440	1	0	9.329412e+01
70.383575	1.346223	city	9	0	0.000000	1.426683	0	0	0	1	OmissionError	0.037247	0.671493	1	0	9.305882e+01
71.703072	1.292768	city	2	1	1.155066	1.155066	0	1	0	0	CorrectCommission	0.873394	0.654832	1	0	9.282353e+01
73.002647	1.306382	city	10	1	1.845239	1.845239	0	1	0	0	CorrectCommission	1.251238	0.643020	1	0	9.258824e+01
74.308960	1.306253	city	6	1	1.612181	1.612181	0	1	0	0	CorrectCommission	0.533792	0.637483	1	0	9.235294e+01
75.615196	1.306219	mountain	8	0	0.000000	1.496538	1	0	0	0	CorrectOmission	0.177796	0.639278	1	0	9.211765e+01
76.908104	1.279598	city	5	1	1.448590	1.448590	0	1	0	0	CorrectCommission	0.030191	0.648828	1	0	9.188235e+01
78.267670	1.439526	city	9	1	1.418616	1.418616	0	1	0	0	CorrectCommission	0.062080	0.665733	1	0	9.164706e+01
79.673874	1.372880	city	2	1	1.322231	1.322231	0	1	0	0	CorrectCommission	0.358792	0.688664	1	0	9.141176e+01
81.013428	1.306231	city	1	1	1.242421	1.242421	0	1	0	0	CorrectCommission	0.604481	0.715429	1	0	9.117647e+01
82.306335	1.279587	city	2	1	1.175596	1.175596	0	1	0	0	CorrectCommission	0.810195	0.743215	1	0	9.094118e+01
83.599197	1.306139	city	7	1	1.656251	1.656251	0	1	0	0	CorrectCommission	0.669456	0.768889	0	0	9.070588e+01
84.905434	1.306329	city	8	1	0.642553	0.642553	0	1	0	0	CorrectCommission	2.451116	0.789406	0	0	9.047059e+01
86.205048	1.292894	city	5	1	1.220650	1.220650	0	1	0	0	CorrectCommission	0.671500	0.802256	0	0	9.023529e+01
87.491257	1.279528	mountain	9	0	0.000000	1.184011	1	0	0	0	CorrectOmission	0.784289	0.805893	0	0	90
88.777512	1.292975	city	1	1	1.123506	1.123506	0	1	0	0	CorrectCommission	0.970548	0.799894	0	0	8.976471e+01
90.063782	1.279576	city	6	1	1.630004	1.630004	0	1	0	0	CorrectCommission	0.588657	0.785065	0	0	8.952941e+01
91.343369	1.279585	city	1	1	0.642322	0.642322	0	1	0	0	CorrectCommission	2.451829	0.763347	0	0	8.929412e+01
92.629623	1.292939	city	10	1	1.282253	1.282253	0	1	0	0	CorrectCommission	0.481859	0.737476	1	0	8.905882e+01
93.915871	1.279548	city	2	1	1.485701	1.485701	0	1	0	0	CorrectCommission	0.144436	0.710715	1	0	8.882353e+01
95.202095	1.292907	city	4	1	1.529113	1.529113	0	1	0	0	CorrectCommission	0.278074	0.686284	1	0	8.858824e+01
96.521652	1.346208	city	9	1	1.578439	1.578439	0	1	0	0	CorrectCommission	0.429921	0.666944	1	0	8.835294e+01
97.847862	1.306207	city	3	1	1.341016	1.341016	0	1	0	0	CorrectCommission	0.300965	0.654595	1	0	8.811765e+01
99.147438	1.292937	city	8	1	1.367594	1.367594	0	1	0	0	CorrectCommission	0.219145	0.650097	1	0	8.788235e+01
100.453697	1.319586	city	1	1	1.497262	1.497262	0	1	0	0	CorrectCommission	0.180024	0.653146	1	0	8.764706e+01
101.766609	1.306233	city	6	1	1.547426	1.547426	0	1	0	0	CorrectCommission	0.334449	0.662426	1	0	8.741176e+01
103.132820	1.426198	city	2	1	1.687298	1.687298	0	1	0	0	CorrectCommission	0.765033	0.675889	1	0	8.717647e+01
104.492393	1.292947	city	6	1	1.957509	1.957509	0	1	0	0	CorrectCommission	1.596852	0.691128	1	0	8.694118e+01
105.798630	1.319531	city	4	0	0.000000	1.377238	0	0	0	1	OmissionError	0.189459	0.705750	1	0	8.670588e+01
107.104851	1.292906	city	8	1	0.790751	0.790751	0	1	0	0	CorrectCommission	1.994903	0.717757	1	0	8.647059e+01
108.404419	1.306228	city	6	1	1.042317	1.042317	0	1	0	0	CorrectCommission	1.220482	0.725662	1	0	8.623529e+01
112.996185	7.877305	break	0	0	0.000000	1.459314	0	0	0	0	ThoughtProbe	0.063206	0.728705	1	86	86
117.574677	1.279682	city	7	1	1.687534	1.687534	0	1	0	0	CorrectCommission	0.765757	0.726764	1	0	8.555882e+01
118.854301	1.279563	city	10	1	1.372764	1.372764	0	1	0	0	CorrectCommission	0.203232	0.720202	1	0	8.511765e+01
120.133881	1.279598	city	7	1	1.662263	1.662263	0	1	0	0	CorrectCommission	0.687964	0.709750	1	0	8.467647e+01
121.460121	1.372886	city	8	1	1.172959	1.172959	0	1	0	0	CorrectCommission	0.818312	0.696322	1	0	8.423529e+01
122.819626	1.346126	city	10	1	1.022117	1.022117	0	1	0	0	CorrectCommission	1.282666	0.680920	1	0	8.379412e+01
124.172508	1.359628	city	4	1	1.232760	1.232760	0	1	0	0	CorrectCommission	0.634220	0.664543	1	0	8.335294e+01
125.492119	1.279600	mountain	6	1	1.586096	1.586096	0	0	1	0	CommissionError	0.453490	0.648181	1	0	8.291176e+01
126.825050	1.386257	city	4	1	1.315890	1.315890	0	1	0	0	CorrectCommission	0.378312	0.632729	1	0	8.247059e+01
128.164612	1.292858	city	3	1	1.161703	1.161703	0	1	0	0	CorrectCommission	0.852962	0.619094	1	0	8.202941e+01
129.450821	1.279574	city	5	1	1.599353	1.599353	0	1	0	0	CorrectCommission	0.494301	0.608105	1	0	8.158824e+01
130.737000	1.292781	city	7	1	1.744526	1.744526	0	1	0	0	CorrectCommission	0.941204	0.600584	1	0	8.114706e+01
132.076569	1.386354	city	4	1	1.472833	1.472833	0	1	0	0	CorrectCommission	0.104822	0.597240	1	0	8.070588e+01
133.422821	1.306153	city	3	1	1.367110	1.367110	0	1	0	0	CorrectCommission	0.220636	0.598741	1	0	8.026471e+01
134.729050	1.306293	city	7	1	1.541483	1.541483	0	1	0	0	CorrectCommission	0.316156	0.605640	1	0	7.982353e+01
136.028641	1.292907	city	6	1	1.755009	1.755009	0	1	0	0	CorrectCommission	0.973474	0.618370	1	0	7.938235e+01
137.328217	1.306239	mountain	7	0	0.000000	1.742139	1	0	0	0	CorrectOmission	0.933854	0.637207	1	0	7.894118e+01
138.621124	1.279578	city	9	1	1.592767	1.592767	0	1	0	0	CorrectCommission	0.474029	0.662239	1	0	7.850000e+01
139.907379	1.292931	city	5	1	1.396789	1.396789	0	1	0	0	CorrectCommission	0.129271	0.693299	1	0	7.805882e+01
141.206909	1.306117	city	4	0	0.000000	1.170978	0	0	0	1	OmissionError	0.824410	0.729937	1	0	7.761765e+01
142.519760	1.319593	city	8	1	1.136773	1.136773	0	1	0	0	CorrectCommission	0.929707	0.771259	0	0	7.717647e+01
143.839401	1.319686	city	5	1	1.515614	1.515614	0	1	0	0	CorrectCommission	0.236520	0.815957	0	0	7.673529e+01
145.145676	1.292871	city	9	1	1.903597	1.903597	0	1	0	0	CorrectCommission	1.430887	0.862297	0	0	7.629412e+01
146.451904	1.319580	city	6	0	0.000000	1.472658	0	0	0	1	OmissionError	0.104283	0.908076	0	0	7.585294e+01
147.764801	1.306229	city	8	1	1.186577	1.186577	0	1	0	0	CorrectCommission	0.776391	0.950866	0	0	7.541176e+01
149.077698	1.319548	city	5	1	2.009132	2.009132	0	1	0	0	CorrectCommission	1.755767	0.988082	0	0	7.497059e+01
150.383926	1.292931	city	10	0	0.000000	1.870746	0	0	0	1	OmissionError	1.329759	1.017290	0	0	7.452941e+01
151.683487	1.306172	city	1	1	1.629378	1.629378	0	1	0	0	CorrectCommission	0.586731	1.036481	0	0	7.408824e+01
152.989716	1.306301	city	5	1	2.142987	2.142987	0	1	0	0	CorrectCommission	2.167829	1.044353	0	0	7.364706e+01
154.302658	1.319562	city	7	1	1.162321	1.162321	0	1	0	0	CorrectCommission	0.851062	1.040412	0	0	7.320588e+01
155.608887	1.292907	city	9	1	2.220842	2.220842	0	1	0	0	CorrectCommission	2.407498	1.025185	0	0	7.276471e+01
156.895126	1.279584	city	5	1	1.228946	1.228946	0	1	0	0	CorrectCommission	0.645961	1.000042	0	0	7.232353e+01
158.188049	1.306251	city	4	1	1.175309	1.175309	0	1	0	0	CorrectCommission	0.811077	0.967186	0	0	7.188235e+01
159.480957	1.279565	city	6	1	1.142055	1.142055	0	1	0	0	CorrectCommission	0.913448	0.929257	0	0	7.144118e+01
163.912827	7.584170	break	0	0	0.000000	1.140838	0	0	0	0	ThoughtProbe	0.917193	0.889053	0	71	71
168.364700	1.319569	mountain	3	0	0.000000	1.194519	1	0	0	0	CorrectOmission	0.751943	0.849191	0	0	7.055000e+01
169.664261	1.279571	city	7	1	1.325955	1.325955	0	1	0	0	CorrectCommission	0.347329	0.811811	0	0	7.010000e+01
170.963837	1.319572	city	5	1	1.558005	1.558005	0	1	0	0	CorrectCommission	0.367017	0.778362	0	0	6.965000e+01
172.296738	1.346226	city	4	1	1.688304	1.688304	0	1	0	0	CorrectCommission	0.768128	0.749508	1	0	6.920000e+01
173.643188	1.346689	city	1	1	1.313681	1.313681	0	1	0	0	CorrectCommission	0.385112	0.725196	1	0	6.875000e+01
174.969406	1.305746	city	6	1	1.706274	1.706274	0	1	0	0	CorrectCommission	0.823448	0.704840	1	0	6.830000e+01
176.282074	1.319569	city	7	1	1.143559	1.143559	0	1	0	0	CorrectCommission	0.908818	0.687567	1	0	6.785000e+01
177.601669	1.319623	city	2	1	1.241809	1.241809	0	1	0	0	CorrectCommission	0.606363	0.672438	1	0	6.740000e+01
178.921188	1.319437	city	1	1	1.077763	1.077763	0	1	0	0	CorrectCommission	1.111363	0.658796	1	0	6.695000e+01
180.247391	1.332965	city	5	1	1.249441	1.249441	0	1	0	0	CorrectCommission	0.582869	0.646381	1	0	6.650000e+01
181.553665	1.279583	city	8	1	1.160711	1.160711	0	1	0	0	CorrectCommission	0.856016	0.635459	1	0	6.605000e+01
182.853241	1.319561	city	7	1	1.459686	1.459686	0	1	0	0	CorrectCommission	0.064350	0.626778	1	0	6.560000e+01
184.179474	1.332917	city	1	1	1.826582	1.826582	0	1	0	0	CorrectCommission	1.193806	0.621440	1	0	6.515000e+01
185.499054	1.306235	mountain	5	0	0.000000	1.583351	1	0	0	0	CorrectOmission	0.445043	0.620654	1	0	6.470000e+01
186.798645	1.292932	city	3	1	1.274618	1.274618	0	1	0	0	CorrectCommission	0.505366	0.625563	1	0	6.425000e+01
188.084885	1.279564	city	8	1	1.445005	1.445005	0	1	0	0	CorrectCommission	0.019155	0.636864	1	0	6.380000e+01
189.364456	1.279574	city	4	0	0.000000	1.349955	0	0	0	1	OmissionError	0.273446	0.654682	1	0	6.335000e+01
190.644043	1.279589	city	5	1	1.263851	1.263851	0	1	0	0	CorrectCommission	0.538508	0.678378	1	0	6.290000e+01
191.930283	1.292890	city	4	0	0.000000	1.461075	0	0	0	1	OmissionError	0.068625	0.706611	1	0	6.245000e+01
193.216507	1.279563	city	6	1	1.751416	1.751416	0	1	0	0	CorrectCommission	0.962412	0.737426	1	0	62
194.496094	1.279598	city	5	0	0.000000	1.944664	0	0	0	1	OmissionError	1.557310	0.768447	0	0	6.155000e+01
195.795654	1.319545	city	1	1	1.926437	1.926437	0	1	0	0	CorrectCommission	1.501199	0.797132	0	0	6.110000e+01
197.121811	1.332763	city	4	0	0.000000	1.582350	0	0	0	1	OmissionError	0.441959	0.821108	0	0	6.065000e+01
198.461334	1.346268	city	6	1	1.311520	1.311520	0	1	0	0	CorrectCommission	0.391766	0.838472	0	0	6.020000e+01
199.794296	1.319670	city	7	1	1.513064	1.513064	0	1	0	0	CorrectCommission	0.228670	0.847962	0	0	5.975000e+01
201.100586	1.292912	city	8	1	0.496012	0.496012	0	1	0	0	CorrectCommission	2.902230	0.849145	0	0	5.930000e+01
202.393478	1.292879	city	9	1	1.345072	1.345072	0	1	0	0	CorrectCommission	0.288478	0.842471	0	0	5.885000e+01
203.713058	1.346256	city	5	1	1.797783	1.797783	0	1	0	0	CorrectCommission	1.105151	0.829393	0	0	5.840000e+01
205.039291	1.306213	mountain	6	1	0.775703	0.775703	0	0	1	0	CommissionError	2.041228	0.812081	0	0	5.795000e+01
206.338852	1.292912	city	5	1	1.417312	1.417312	0	1	0	0	CorrectCommission	0.066093	0.793306	0	0	5.750000e+01
207.638351	1.306084	city	9	1	1.329452	1.329452	0	1	0	0	CorrectCommission	0.336564	0.776141	0	0	5.705000e+01
208.991150	1.399527	city	1	1	1.434944	1.434944	0	1	0	0	CorrectCommission	0.011817	0.763559	0	0	5.660000e+01
210.337463	1.293090	city	7	1	1.304223	1.304223	0	1	0	0	CorrectCommission	0.414229	0.758126	1	0	5.615000e+01
211.637115	1.306232	city	9	1	1.820191	1.820191	0	1	0	0	CorrectCommission	1.174131	0.761705	1	0	5.570000e+01
212.983292	1.386092	city	6	0	0.000000	1.711067	0	0	0	1	OmissionError	0.838204	0.775234	0	0	5.525000e+01
214.389420	1.426171	city	3	1	1.471623	1.471623	0	1	0	0	CorrectCommission	0.101097	0.798663	0	0	5.480000e+01
215.749023	1.293057	city	9	1	1.596628	1.596628	0	1	0	0	CorrectCommission	0.485915	0.830908	0	0	5.435000e+01
217.035355	1.279580	city	5	1	1.638582	1.638582	0	1	0	0	CorrectCommission	0.615066	0.869967	0	0	5.390000e+01
218.328262	1.306239	city	7	0	0.000000	1.151594	0	0	0	1	OmissionError	0.884081	0.913127	0	0	5.345000e+01
218.981384	8.730313	break	0	1	0.837330	0.837330	0	0	0	0	ThoughtProbe	1.851514	0.957234	0	53	53
228.358154	1.292922	city	5	1	1.397455	1.397455	0	1	0	0	CorrectCommission	0.127223	0.999029	0	0	53
229.651123	1.293022	city	3	1	1.664128	1.664128	0	1	0	0	CorrectCommission	0.693705	1.035546	0	0	53
230.944031	1.292802	city	1	1	0.655795	0.655795	0	1	0	0	CorrectCommission	2.410352	1.064364	0	0	53
232.256943	1.333019	city	9	1	0.798631	0.798631	0	1	0	0	CorrectCommission	1.970645	1.083885	0	0	53
233.569916	1.292909	city	4	1	1.051419	1.051419	0	1	0	0	CorrectCommission	1.192462	1.093553	0	0	53
234.876144	1.319548	city	8	1	1.070427	1.070427	0	1	0	0	CorrectCommission	1.133946	1.093844	0	0	53
236.202362	1.332891	city	2	1	1.192717	1.192717	0	1	0	0	CorrectCommission	0.757490	1.086120	0	0	53
237.508575	1.279536	city	10	1	1.650615	1.650615	0	1	0	0	CorrectCommission	0.652107	1.072348	0	0	53
238.821472	1.346267	city	7	1	2.105927	2.105927	0	1	0	0	CorrectCommission	2.053741	1.054919	0	0	53
240.147720	1.306237	city	1	1	1.042371	1.042371	0	1	0	0	CorrectCommission	1.220314	1.036195	0	0	53
241.440643	1.279598	city	5	1	1.639892	1.639892	0	1	0	0	CorrectCommission	0.619098	1.018288	0	0	53
242.733475	1.306056	city	10	1	1.332073	1.332073	0	1	0	0	CorrectCommission	0.328494	1.002809	0	0	53
244.033035	1.293092	city	3	1	1.439859	1.439859	0	1	0	0	CorrectCommission	0.003314	0.990698	0	0	53
245.332687	1.306211	city	10	0	0.000000	1.082160	0	0	0	1	OmissionError	1.097827	0.982249	0	0	53
246.638916	1.306240	city	9	1	0.923021	0.923021	0	1	0	0	CorrectCommission	1.587724	0.977171	0	0	53
247.931839	1.279603	city	6	1	1.626483	1.626483	0	1	0	0	CorrectCommission	0.577820	0.974767	0	0	53
249.251358	1.359430	city	2	1	1.859202	1.859202	0	1	0	0	CorrectCommission	1.294222	0.974220	0	0	53
250.604233	1.346325	mountain	6	0	0.000000	1.954773	1	0	0	0	CorrectOmission	1.588429	0.974698	0	0	53
251.917191	1.279595	mountain	8	0	0.000000	1.925259	1	0	0	0	CorrectOmission	1.497573	0.975494	0	0	53
253.216766	1.319550	city	7	1	1.782723	1.782723	0	1	0	0	CorrectCommission	1.058789	0.976072	0	0	53
254.516312	1.279532	mountain	6	0	0.000000	1.539227	1	0	0	0	CorrectOmission	0.309208	0.976007	0	0	53
255.795883	1.279627	city	3	1	1.343877	1.343877	0	1	0	0	CorrectCommission	0.292157	0.974869	0	0	53
257.115479	1.359563	city	10	1	1.345780	1.345780	0	1	0	0	CorrectCommission	0.286298	0.972166	0	0	53
258.434998	1.279470	city	6	1	1.632176	1.632176	0	1	0	0	CorrectCommission	0.595344	0.967346	0	0	53
259.741241	1.333015	city	5	1	0.695890	0.695890	0	1	0	0	CorrectCommission	2.286924	0.959791	0	0	53
261.067535	1.319560	mountain	8	0	0.000000	0.752665	1	0	0	0	CorrectOmission	2.112146	0.948997	0	0	53
262.393677	1.332719	city	1	1	1.324348	1.324348	0	1	0	0	CorrectCommission	0.352276	0.934732	0	0	53
263.713226	1.306390	city	3	1	1.932782	1.932782	0	1	0	0	CorrectCommission	1.520732	0.917116	0	0	53
265.032867	1.332872	city	5	0	0.000000	1.610844	0	0	0	1	OmissionError	0.529677	0.896618	0	0	53
266.359100	1.319606	city	1	1	1.144580	1.144580	0	1	0	0	CorrectCommission	0.905676	0.874125	0	0	53
267.712036	1.386245	city	6	1	1.320033	1.320033	0	1	0	0	CorrectCommission	0.365558	0.850719	0	0	53
269.051514	1.292751	city	1	1	1.380086	1.380086	0	1	0	0	CorrectCommission	0.180692	0.827683	0	0	53
270.337738	1.279702	city	9	0	0.000000	1.057016	0	0	0	1	OmissionError	1.175233	0.806350	0	0	53
271.678802	1.402440	city	4	1	0.909599	0.909599	0	1	0	0	CorrectCommission	1.629042	0.787951	0	0	53
273.031708	1.303321	city	5	1	1.496610	1.496610	0	1	0	0	CorrectCommission	0.178017	0.773624	0	0	53
274.356476	1.346224	city	8	1	1.724108	1.724108	0	1	0	0	CorrectCommission	0.878349	0.764356	0	0	53
275.716034	1.372908	city	4	0	0.000000	1.671795	0	0	0	1	OmissionError	0.717308	0.760829	1	0	53
277.068909	1.332866	city	8	0	0.000000	1.467111	0	0	0	1	OmissionError	0.087207	0.763481	0	0	53
278.388489	1.306261	city	4	1	1.237497	1.237497	0	1	0	0	CorrectCommission	0.619638	0.772433	0	0	53
279.694672	1.306110	city	9	1	1.110393	1.110393	0	1	0	0	CorrectCommission	1.010914	0.787436	0	0	53
281.007568	1.319697	city	6	1	1.091758	1.091758	0	1	0	0	CorrectCommission	1.068282	0.807884	0	0	53
282.313812	1.292779	city	9	1	1.451233	1.451233	0	1	0	0	CorrectCommission	0.038330	0.832827	0	0	53
283.613373	1.306368	city	1	1	1.837590	1.837590	0	1	0	0	CorrectCommission	1.227691	0.861096	0	0	53
284.912994	1.292877	city	10	1	1.407504	1.407504	0	1	0	0	CorrectCommission	0.096287	0.891348	0	0	53
286.199249	1.279601	city	3	1	2.010511	2.010511	0	1	0	0	CorrectCommission	1.760014	0.922283	0	0	53
290.077911	6.477706	break	0	1	1.015651	1.015651	0	0	0	0	ThoughtProbe	1.302571	0.952698	0	53	53
293.963287	1.293053	city	1	1	1.392304	1.392304	0	1	0	0	CorrectCommission	0.143080	0.981717	0	0	5.297500e+01
295.269531	1.319460	city	7	0	0.000000	1.004738	0	0	0	1	OmissionError	1.336166	1.008853	0	0	5.295000e+01
296.609100	1.359681	city	6	1	0.771555	0.771555	0	1	0	0	CorrectCommission	2.053995	1.034039	0	0	5.292500e+01
297.935394	1.292899	city	10	1	1.611361	1.611361	0	1	0	0	CorrectCommission	0.531266	1.057583	0	0	5.290000e+01
299.234955	1.306229	city	9	1	1.797151	1.797151	0	1	0	0	CorrectCommission	1.103204	1.080136	0	0	5.287500e+01
300.541138	1.306129	mountain	1	1	0.829065	0.829065	0	0	1	0	CommissionError	1.876957	1.102399	0	0	5.285000e+01
301.847290	1.306180	city	3	1	1.379975	1.379975	0	1	0	0	CorrectCommission	0.181033	1.124984	0	0	5.282500e+01
303.166931	1.333075	city	4	0	0.000000	1.165333	0	0	0	1	OmissionError	0.841787	1.148266	0	0	5.280000e+01
304.479919	1.292893	city	2	1	0.959208	0.959208	0	1	0	0	CorrectCommission	1.476324	1.172121	0	0	5.277500e+01
305.766144	1.279575	city	10	1	1.535666	1.535666	0	1	0	0	CorrectCommission	0.298249	1.195930	0	0	5.275000e+01
307.079041	1.346244	city	3	1	1.585029	1.585029	0	1	0	0	CorrectCommission	0.450206	1.218706	0	0	5.272500e+01
308.431946	1.359532	city	5	0	0.000000	2.018644	0	0	0	1	OmissionError	1.785050	1.239142	0	0	5.270000e+01
309.764832	1.306236	city	6	0	0.000000	2.406236	0	0	0	1	OmissionError	2.978216	1.255775	0	0	5.267500e+01
311.057739	1.279581	mountain	3	1	2.317529	2.317529	0	0	1	0	CommissionError	2.705140	1.267215	0	0	5.265000e+01
312.357300	1.319571	city	8	1	1.322247	1.322247	0	1	0	0	CorrectCommission	0.358744	1.272276	0	0	5.262500e+01
313.703552	1.372897	city	1	1	1.359291	1.359291	0	1	0	0	CorrectCommission	0.244705	1.270053	0	0	5.260000e+01
315.069763	1.359529	city	3	1	1.074546	1.074546	0	1	0	0	CorrectCommission	1.121267	1.259880	0	0	5.257500e+01
316.409302	1.319569	city	8	1	1.029236	1.029236	0	1	0	0	CorrectCommission	1.260750	1.241372	0	0	5.255000e+01
317.708893	1.279604	city	9	1	1.766716	1.766716	0	1	0	0	CorrectCommission	1.009512	1.214438	0	0	5.252500e+01
319.001801	1.306228	mountain	7	0	0.000000	2.143192	1	0	0	0	CorrectOmission	2.168460	1.179377	0	0	5.250000e+01
320.328033	1.346244	city	9	1	1.933576	1.933576	0	1	0	0	CorrectCommission	1.523177	1.136841	0	0	5.247500e+01
321.654205	1.306101	city	10	1	0.912777	0.912777	0	1	0	0	CorrectCommission	1.619258	1.087960	0	0	5.245000e+01
322.967102	1.319691	city	3	1	1.888026	1.888026	0	1	0	0	CorrectCommission	1.382953	1.034301	0	0	5.242500e+01
324.293396	1.332869	city	1	0	0.000000	1.725217	0	0	0	1	OmissionError	0.881761	0.977759	0	0	5.240000e+01
325.632935	1.346240	city	9	1	1.330473	1.330473	0	1	0	0	CorrectCommission	0.333420	0.920392	0	0	5.237500e+01
326.959167	1.306243	city	3	1	1.609917	1.609917	0	1	0	0	CorrectCommission	0.526821	0.864236	0	0	5.235000e+01
328.265411	1.306210	city	9	1	1.722985	1.722985	0	1	0	0	CorrectCommission	0.874891	0.811064	0	0	5.232500e+01
329.584961	1.332897	city	6	1	1.476097	1.476097	0	1	0	0	CorrectCommission	0.114870	0.762258	1	0	5.230000e+01
330.897888	1.292936	city	7	1	1.488786	1.488786	0	1	0	0	CorrectCommission	0.153933	0.718850	1	0	5.227500e+01
332.210785	1.332887	city	5	1	1.666363	1.666363	0	1	0	0	CorrectCommission	0.700585	0.681521	1	0	5.225000e+01
333.550354	1.346252	city	2	1	1.988118	1.988118	0	1	0	0	CorrectCommission	1.691078	0.650697	1	0	5.222500e+01
334.896606	1.346220	city	8	0	0.000000	1.645500	0	0	0	1	OmissionError	0.636360	0.626724	1	0	5.220000e+01
336.222809	1.306215	city	7	1	1.316330	1.316330	0	1	0	0	CorrectCommission	0.376958	0.609978	1	0	5.217500e+01
337.555695	1.359550	city	3	1	1.678430	1.678430	0	1	0	0	CorrectCommission	0.737732	0.600807	1	0	5.215000e+01
338.895264	1.319570	city	1	0	0.000000	1.512263	0	0	0	1	OmissionError	0.226205	0.599443	1	0	5.212500e+01
340.214813	1.319521	city	9	1	1.305779	1.305779	0	1	0	0	CorrectCommission	0.409437	0.605877	1	0	5.210000e+01
341.514374	1.279621	city	5	1	1.546925	1.546925	0	1	0	0	CorrectCommission	0.332906	0.619657	1	0	5.207500e+01
342.840607	1.372869	city	1	0	0.000000	1.427391	0	0	0	1	OmissionError	0.035066	0.639689	1	0	5.205000e+01
344.173492	1.292906	city	6	1	1.226046	1.226046	0	1	0	0	CorrectCommission	0.654889	0.664142	1	0	5.202500e+01
347.972229	6.304570	break	0	0	0.000000	1.221756	0	0	0	0	ThoughtProbe	0.668095	0.690481	1	52	52
351.777649	1.306256	city	9	1	1.377137	1.377137	0	1	0	0	CorrectCommission	0.189769	0.715709	1	0	5.182609e+01
353.097229	1.332896	city	10	1	1.654804	1.654804	0	1	0	0	CorrectCommission	0.665002	0.736659	1	0	5.165217e+01
354.410156	1.292924	city	5	1	1.849697	1.849697	0	1	0	0	CorrectCommission	1.264961	0.750410	1	0	5.147826e+01
355.723053	1.332877	city	10	1	2.158270	2.158270	0	1	0	0	CorrectCommission	2.214875	0.754679	1	0	5.130435e+01
357.055878	1.332801	mountain	1	0	0.000000	2.029150	1	0	0	0	CorrectOmission	1.817392	0.748156	1	0	5.113043e+01
358.362091	1.279605	mountain	2	0	0.000000	1.711106	1	0	0	0	CorrectOmission	0.838323	0.730704	1	0	5.095652e+01
359.655029	1.306309	city	5	1	1.452907	1.452907	0	1	0	0	CorrectCommission	0.043482	0.703367	1	0	5.078261e+01
360.947937	1.279486	city	10	1	1.503322	1.503322	0	1	0	0	CorrectCommission	0.198681	0.668175	1	0	5.060870e+01
362.300842	1.426307	city	5	1	1.798135	1.798135	0	1	0	0	CorrectCommission	1.106234	0.627812	1	0	5.043478e+01
363.667114	1.306220	city	8	1	1.626849	1.626849	0	1	0	0	CorrectCommission	0.578947	0.585286	1	0	5.026087e+01
364.979950	1.319466	city	2	1	1.322304	1.322304	0	1	0	0	CorrectCommission	0.358566	0.543606	1	0	5.008696e+01
366.292847	1.306356	city	1	1	1.530744	1.530744	0	1	0	0	CorrectCommission	0.283096	0.505406	1	0	4.991304e+01
367.599060	1.306055	city	5	1	1.387847	1.387847	0	1	0	0	CorrectCommission	0.156800	0.472761	1	0	4.973913e+01
368.945190	1.386219	city	9	1	1.435178	1.435178	0	1	0	0	CorrectCommission	0.011097	0.447130	1	0	4.956522e+01
370.304840	1.333058	city	10	1	1.321512	1.321512	0	1	0	0	CorrectCommission	0.361004	0.429346	1	0	4.939130e+01
371.617828	1.292922	city	9	1	1.657089	1.657089	0	1	0	0	CorrectCommission	0.672037	0.419688	1	0	4.921739e+01
372.937378	1.346216	city	7	1	1.605596	1.605596	0	1	0	0	CorrectCommission	0.513520	0.418042	1	0	4.904348e+01
374.303619	1.386212	city	6	1	1.495640	1.495640	0	1	0	0	CorrectCommission	0.175030	0.424106	1	0	4.886957e+01
375.643097	1.292788	mountain	6	0	0.000000	1.485983	1	0	0	0	CorrectOmission	0.145304	0.437521	1	0	4.869565e+01
376.936005	1.293028	city	3	1	1.542355	1.542355	0	1	0	0	CorrectCommission	0.318838	0.457958	1	0	4.852174e+01
378.228973	1.292908	city	2	1	1.630483	1.630483	0	1	0	0	CorrectCommission	0.590132	0.485213	1	0	4.834783e+01
379.555206	1.359527	city	10	1	1.695312	1.695312	0	1	0	0	CorrectCommission	0.789704	0.519162	1	0	4.817391e+01
380.901428	1.332924	city	9	1	1.560013	1.560013	0	1	0	0	CorrectCommission	0.373196	0.559749	1	0	48
382.267670	1.399542	city	6	1	1.316156	1.316156	0	1	0	0	CorrectCommission	0.377493	0.606858	1	0	4.782609e+01
383.627167	1.319465	city	5	1	1.494527	1.494527	0	1	0	0	CorrectCommission	0.171604	0.660170	1	0	4.765217e+01
384.966766	1.359736	city	7	0	0.000000	1.212352	0	0	0	1	OmissionError	0.697044	0.719025	1	0	4.747826e+01
386.332977	1.372697	city	1	1	1.033571	1.033571	0	1	0	0	CorrectCommission	1.247405	0.782337	0	0	4.730435e+01
387.672485	1.306314	city	6	1	1.522121	1.522121	0	1	0	0	CorrectCommission	0.256550	0.848533	0	0	4.713043e+01
388.978760	1.306263	city	4	0	0.000000	1.247070	0	0	0	1	OmissionError	0.590167	0.915607	0	0	4.695652e+01
390.285004	1.306226	city	5	1	0.920206	0.920206	0	1	0	0	CorrectCommission	1.596387	0.981146	0	0	4.678261e+01
391.624573	1.372890	city	10	1	1.253316	1.253316	0	1	0	0	CorrectCommission	0.570940	1.042491	0	0	4.660870e+01
392.964142	1.306234	city	4	1	1.750523	1.750523	0	1	0	0	CorrectCommission	0.959665	1.096994	0	0	4.643478e+01
394.290344	1.346204	city	8	0	0.000000	2.066338	0	0	0	1	OmissionError	1.931870	1.142201	0	0	4.626087e+01
395.616577	1.306265	mountain	6	0	0.000000	2.139486	1	0	0	0	CorrectOmission	2.157050	1.176101	0	0	4.608696e+01
396.922852	1.306231	city	8	1	1.908694	1.908694	0	1	0	0	CorrectCommission	1.446580	1.197332	0	0	4.591304e+01
398.229065	1.306235	city	10	0	0.000000	1.312689	0	0	0	1	OmissionError	0.388166	1.205309	0	0	4.573913e+01
399.555298	1.346224	city	9	1	0.775840	0.775840	0	1	0	0	CorrectCommission	2.040805	1.200275	0	0	4.556522e+01
400.901520	1.346206	city	8	1	0.722517	0.722517	0	1	0	0	CorrectCommission	2.204954	1.183200	0	0	4.539130e+01
402.274384	1.399550	city	6	1	1.334092	1.334092	0	1	0	0	CorrectCommission	0.322280	1.155768	0	0	4.521739e+01
403.620636	1.292916	city	1	1	1.941210	1.941210	0	1	0	0	CorrectCommission	1.546677	1.120254	0	0	4.504348e+01
404.933533	1.332873	city	4	0	0.000000	1.415154	0	0	0	1	OmissionError	0.072736	1.079213	0	0	4.486957e+01
406.266357	1.332779	city	1	1	0.996764	0.996764	0	1	0	0	CorrectCommission	1.360712	1.035411	0	0	4.469565e+01
407.585907	1.306327	city	3	1	1.926877	1.926877	0	1	0	0	CorrectCommission	1.502554	0.991519	0	0	4.452174e+01
408.918854	1.359582	city	5	0	0.000000	1.955110	0	0	0	1	OmissionError	1.589467	0.949979	0	0	4.434783e+01
410.258423	1.319582	city	1	0	0.000000	1.559306	0	0	0	1	OmissionError	0.371021	0.912811	0	0	4.417391e+01
414.403656	6.970877	break	0	1	1.217308	1.217308	0	0	0	0	ThoughtProbe	0.681788	0.881422	0	44	44
418.562286	1.346389	city	6	1	1.406959	1.406959	0	1	0	0	CorrectCommission	0.097964	0.856454	0	0	4.397059e+01
419.901917	1.332830	city	9	1	1.430954	1.430954	0	1	0	0	CorrectCommission	0.024100	0.837748	0	0	4.394118e+01
421.234802	1.332943	city	10	1	1.212707	1.212707	0	1	0	0	CorrectCommission	0.695951	0.824385	0	0	4.391176e+01
422.547729	1.292925	city	7	1	1.890030	1.890030	0	1	0	0	CorrectCommission	1.389122	0.814837	0	0	4.388235e+01
423.860565	1.332768	city	5	1	1.653797	1.653797	0	1	0	0	CorrectCommission	0.661904	0.807262	0	0	4.385294e+01
425.193420	1.332907	city	8	0	0.000000	1.227028	0	0	0	1	OmissionError	0.651866	0.799851	0	0	4.382353e+01
426.526367	1.332986	city	5	1	0.892394	0.892394	0	1	0	0	CorrectCommission	1.682004	0.791128	0	0	4.379412e+01
427.839325	1.292929	mountain	1	0	0.000000	0.932569	1	0	0	0	CorrectOmission	1.558329	0.780212	0	0	4.376471e+01
429.158844	1.346110	city	3	1	1.223769	1.223769	0	1	0	0	CorrectCommission	0.661897	0.766998	0	0	4.373529e+01
430.491669	1.319584	city	7	1	1.642211	1.642211	0	1	0	0	CorrectCommission	0.626235	0.752183	1	0	4.370588e+01
431.804626	1.306332	mountain	5	0	0.000000	1.465239	1	0	0	0	CorrectOmission	0.081444	0.737104	1	0	4.367647e+01
433.097534	1.279428	city	3	1	1.342124	1.342124	0	1	0	0	CorrectCommission	0.297555	0.723533	1	0	4.364706e+01
434.403748	1.333053	city	2	1	1.922135	1.922135	0	1	0	0	CorrectCommission	1.487955	0.713326	1	0	4.361765e+01
435.750061	1.359553	city	10	0	0.000000	1.705808	0	0	0	1	OmissionError	0.822012	0.708146	1	0	4.358824e+01
437.109619	1.359546	city	5	1	1.345370	1.345370	0	1	0	0	CorrectCommission	0.287561	0.709247	1	0	4.355882e+01
438.449158	1.319568	city	9	1	1.493050	1.493050	0	1	0	0	CorrectCommission	0.167058	0.717197	1	0	4.352941e+01
439.768738	1.319546	city	2	1	1.419766	1.419766	0	1	0	0	CorrectCommission	0.058541	0.731836	1	0	4.350000e+01
441.081543	1.306084	city	5	1	1.756903	1.756903	0	1	0	0	CorrectCommission	0.979306	0.752244	1	0	4.347059e+01
442.407776	1.346380	city	10	0	0.000000	1.357236	0	0	0	1	OmissionError	0.251034	0.776888	0	0	4.344118e+01
443.727417	1.292926	city	5	1	1.067105	1.067105	0	1	0	0	CorrectCommission	1.144173	0.803853	0	0	4.341176e+01
445.020355	1.292910	city	3	1	1.732855	1.732855	0	1	0	0	CorrectCommission	0.905275	0.831077	0	0	4.338235e+01
446.353241	1.372853	city	2	1	2.053110	2.053110	0	1	0	0	CorrectCommission	1.891151	0.856618	0	0	4.335294e+01
447.726105	1.372912	city	9	0	0.000000	1.663949	0	0	0	1	OmissionError	0.693156	0.878814	0	0	4.332353e+01
449.059021	1.292900	city	1	0	0.000000	1.092785	0	0	0	1	OmissionError	1.065119	0.896440	0	0	4.329412e+01
450.385254	1.359556	city	3	1	0.867031	0.867031	0	1	0	0	CorrectCommission	1.760082	0.908663	0	0	4.326471e+01
451.711426	1.292790	city	7	1	1.514100	1.514100	0	1	0	0	CorrectCommission	0.231859	0.914986	0	0	4.323529e+01
453.070953	1.426296	city	1	0	0.000000	1.420981	0	0	0	1	OmissionError	0.054800	0.915244	0	0	4.320588e+01
454.457245	1.346252	city	7	1	1.334882	1.334882	0	1	0	0	CorrectCommission	0.319849	0.909463	0	0	4.317647e+01
455.783417	1.306094	city	5	1	2.003009	2.003009	0	1	0	0	CorrectCommission	1.736920	0.897846	0	0	4.314706e+01
457.096313	1.319700	city	4	0	0.000000	2.075543	0	0	0	1	OmissionError	1.960207	0.880782	0	0	4.311765e+01
458.409271	1.306231	city	1	1	1.761936	1.761936	0	1	0	0	CorrectCommission	0.994800	0.858929	0	0	4.308824e+01
459.742157	1.359564	city	6	0	0.000000	1.271645	0	0	0	1	OmissionError	0.514517	0.833222	0	0	4.305882e+01
461.114990	1.386080	city	3	1	0.974353	0.974353	0	1	0	0	CorrectCommission	1.429700	0.804828	0	0	4.302941e+01
461.808014	10.743236	break	0	0	0.000000	1.239748	0	0	0	0	ThoughtProbe	0.612709	0.775019	0	43	43
473.197723	1.292932	city	4	1	1.506486	1.506486	0	1	0	0	CorrectCommission	0.208420	0.745067	1	0	4.305000e+01
474.510651	1.332893	city	8	1	1.213228	1.213228	0	1	0	0	CorrectCommission	0.694348	0.716083	1	0	4.310000e+01
475.843567	1.332935	city	9	1	1.401681	1.401681	0	1	0	0	CorrectCommission	0.114213	0.688890	1	0	4.315000e+01
477.203094	1.386151	city	10	1	1.157537	1.157537	0	1	0	0	CorrectCommission	0.865788	0.663947	1	0	4.320000e+01
478.549286	1.306239	city	4	1	1.470527	1.470527	0	1	0	0	CorrectCommission	0.097722	0.641367	1	0	4.325000e+01
479.895538	1.386230	city	6	1	1.215383	1.215383	0	1	0	0	CorrectCommission	0.687714	0.621051	1	0	4.330000e+01
481.248383	1.319469	mountain	6	0	0.000000	1.086407	1	0	0	0	CorrectOmission	1.084753	0.602846	1	0	4.335000e+01
482.574585	1.332974	city	3	1	1.104784	1.104784	0	1	0	0	CorrectCommission	1.028182	0.586677	1	0	4.340000e+01
483.920868	1.359546	city	10	1	1.291696	1.291696	0	1	0	0	CorrectCommission	0.452790	0.572720	1	0	4.345000e+01
485.260437	1.319589	city	1	1	1.770843	1.770843	0	1	0	0	CorrectCommission	1.022217	0.561412	1	0	4.350000e+01
486.600006	1.359549	city	5	1	1.560467	1.560467	0	1	0	0	CorrectCommission	0.374595	0.553396	1	0	4.355000e+01
487.926178	1.292795	city	1	1	1.453461	1.453461	0	1	0	0	CorrectCommission	0.045186	0.549428	1	0	4.360000e+01
489.239075	1.333047	mountain	4	0	0.000000	1.464866	1	0	0	0	CorrectOmission	0.080295	0.550084	1	0	4.365000e+01
490.558716	1.306201	city	10	1	1.535518	1.535518	0	1	0	0	CorrectCommission	0.297791	0.555678	1	0	4.370000e+01
491.911591	1.399536	city	3	1	1.606251	1.606251	0	1	0	0	CorrectCommission	0.515538	0.566040	1	0	4.375000e+01
493.311066	1.399444	city	6	1	1.382780	1.382780	0	1	0	0	CorrectCommission	0.172398	0.580509	1	0	4.380000e+01
494.670624	1.319645	city	8	1	1.695716	1.695716	0	1	0	0	CorrectCommission	0.790947	0.597966	1	0	4.385000e+01
496.010223	1.359571	mountain	8	0	0.000000	1.823618	1	0	0	0	CorrectOmission	1.184682	0.616982	1	0	4.390000e+01
497.349731	1.319469	city	4	1	1.749181	1.749181	0	1	0	0	CorrectCommission	0.955532	0.636011	1	0	4.395000e+01
498.655975	1.292993	city	7	1	1.455096	1.455096	0	1	0	0	CorrectCommission	0.050222	0.653623	1	0	44
499.948914	1.292904	city	10	1	1.576345	1.576345	0	1	0	0	CorrectCommission	0.423473	0.668696	1	0	4.405000e+01
501.275177	1.359575	city	4	1	1.989274	1.989274	0	1	0	0	CorrectCommission	1.694637	0.680578	1	0	4.410000e+01
502.621368	1.332860	city	3	0	0.000000	1.600480	0	0	0	1	OmissionError	0.497771	0.689178	1	0	4.415000e+01
503.954254	1.332903	city	10	1	1.214734	1.214734	0	1	0	0	CorrectCommission	0.689710	0.695077	1	0	4.420000e+01
505.273834	1.306255	city	5	1	1.636809	1.636809	0	1	0	0	CorrectCommission	0.609606	0.699513	1	0	4.425000e+01
506.613403	1.372884	city	2	1	1.951628	1.951628	0	1	0	0	CorrectCommission	1.578748	0.704328	1	0	4.430000e+01
507.972961	1.346230	city	3	1	1.609519	1.609519	0	1	0	0	CorrectCommission	0.525596	0.711918	1	0	4.435000e+01
509.339203	1.386212	city	2	1	1.445284	1.445284	0	1	0	0	CorrectCommission	0.020014	0.725153	1	0	4.440000e+01
510.698730	1.332867	city	10	1	1.450541	1.450541	0	1	0	0	CorrectCommission	0.036198	0.747290	1	0	4.445000e+01
512.031616	1.332919	city	3	1	1.500946	1.500946	0	1	0	0	CorrectCommission	0.191364	0.781795	0	0	4.450000e+01
513.371216	1.346217	city	6	1	2.041756	2.041756	0	1	0	0	CorrectCommission	1.856199	0.832276	0	0	4.455000e+01
514.697449	1.306246	city	3	0	0.000000	1.388899	0	0	0	1	OmissionError	0.153560	0.902197	0	0	4.460000e+01
516.003662	1.306234	city	6	1	0.801302	0.801302	0	1	0	0	CorrectCommission	1.962424	0.994731	0	0	4.465000e+01
517.309875	1.306233	city	7	1	1.537891	1.537891	0	1	0	0	CorrectCommission	0.305096	1.112260	0	0	4.470000e+01
518.629456	1.332897	city	9	0	0.000000	1.546351	0	0	0	1	OmissionError	0.331142	1.256105	0	0	4.475000e+01
519.968994	1.346226	city	1	1	1.458769	1.458769	0	1	0	0	CorrectCommission	0.061528	1.426078	0	0	4.480000e+01
521.295227	1.306229	city	5	1	1.907229	1.907229	0	1	0	0	CorrectCommission	1.442069	1.620209	0	0	4.485000e+01
522.614807	1.332901	city	2	0	0.000000	1.715406	0	0	0	1	OmissionError	0.851560	1.834622	0	0	4.490000e+01
523.941040	1.319547	city	8	1	1.203441	1.203441	0	1	0	0	CorrectCommission	0.724476	2.063707	0	0	4.495000e+01
526.553650	3.905695	break	0	0	0.000000	0.691476	0	0	0	0	ThoughtProbe	2.300511	2.300511	0	45	45
